view_history,rt,name,trial_type,trial_index,time_elapsed,internal_node_id,run_id,condition,recorded_at,source_code_version,ip,user_agent,device,browser,browser_version,platform,platform_version,PROLIFIC_PID,STUDY_ID,SESSION_ID,subject_id,study_id,session_id,response,question_order,accuracy,stimulus,slider_start,price,rate_trial,num_ratings,sequence,option,rank,num_options,num_seqs,seq_cond,reward_cond,array,num_draws
"[{""page_index"":0,""viewing_time"":5868},{""page_index"":1,""viewing_time"":8256},{""page_index"":2,""viewing_time"":3224}]",17348,information sheet,instructions,0,17351,0.0-0.0,14,1,06/02/2023 14:33,ade4f6ea5f9a534a6de2afd25aaa37ca,90.202.132.131,"Mozilla/5.0 (Windows NT 10.0; Win64; x64) AppleWebKit/537.36 (KHTML, like Gecko) Chrome/109.0.0.0 Safari/537.36",WebKit,Chrome,109.0.0.0,Windows,10,614474abab1644252b136279,63e10c411fe3329c8004dfab,63e10f9b9d58b3b116bb4e99,614474abab1644252b136279,63e10c411fe3329c8004dfab,63e10f9b9d58b3b116bb4e99,,,,,,,,,,,,,,,,,
,19819,consent_form,survey-multi-select,1,37175,0.0-1.0,14,1,06/02/2023 14:33,ade4f6ea5f9a534a6de2afd25aaa37ca,90.202.132.131,"Mozilla/5.0 (Windows NT 10.0; Win64; x64) AppleWebKit/537.36 (KHTML, like Gecko) Chrome/109.0.0.0 Safari/537.36",WebKit,Chrome,109.0.0.0,Windows,10,614474abab1644252b136279,63e10c411fe3329c8004dfab,63e10f9b9d58b3b116bb4e99,614474abab1644252b136279,63e10c411fe3329c8004dfab,63e10f9b9d58b3b116bb4e99,"{""Q0"":[""<p style=\""font-size: 12pt;\"">I agree</p>""],""Q1"":[""<p style=\""font-size: 12pt;\"">I agree</p>""],""Q2"":[""<p style=\""font-size: 12pt;\"">I agree</p>""],""Q3"":[""<p style=\""font-size: 12pt;\"">I agree</p>""],""Q4"":[""<p style=\""font-size: 12pt;\"">I agree</p>""],""Q5"":[""<p style=\""font-size: 12pt;\"">I agree</p>""],""Q6"":[""<p style=\""font-size: 12pt;\"">I agree</p>""]}","[0,1,2,3,4,5,6]",,,,,,,,,,,,,,,
,11447,demographics_survey,survey,2,48680,0.0-2.0,14,1,06/02/2023 14:33,ade4f6ea5f9a534a6de2afd25aaa37ca,90.202.132.131,"Mozilla/5.0 (Windows NT 10.0; Win64; x64) AppleWebKit/537.36 (KHTML, like Gecko) Chrome/109.0.0.0 Safari/537.36",WebKit,Chrome,109.0.0.0,Windows,10,614474abab1644252b136279,63e10c411fe3329c8004dfab,63e10f9b9d58b3b116bb4e99,614474abab1644252b136279,63e10c411fe3329c8004dfab,63e10f9b9d58b3b116bb4e99,"{""P0_Q0"":null,""gender"":""Male"",""age"":""66""}",,[],,,,,,,,,,,,,,
"[{""page_index"":0,""viewing_time"":27124}]",27125,phase1_instructions,instructions,3,75811,0.0-3.0,14,1,06/02/2023 14:33,ade4f6ea5f9a534a6de2afd25aaa37ca,90.202.132.131,"Mozilla/5.0 (Windows NT 10.0; Win64; x64) AppleWebKit/537.36 (KHTML, like Gecko) Chrome/109.0.0.0 Safari/537.36",WebKit,Chrome,109.0.0.0,Windows,10,614474abab1644252b136279,63e10c411fe3329c8004dfab,63e10f9b9d58b3b116bb4e99,614474abab1644252b136279,63e10c411fe3329c8004dfab,63e10f9b9d58b3b116bb4e99,,,,,,,,,,,,,,,,,
,13781,rating_trial,html-slider-response,4,89596,0.0-4.0,14,1,06/02/2023 14:33,ade4f6ea5f9a534a6de2afd25aaa37ca,90.202.132.131,"Mozilla/5.0 (Windows NT 10.0; Win64; x64) AppleWebKit/537.36 (KHTML, like Gecko) Chrome/109.0.0.0 Safari/537.36",WebKit,Chrome,109.0.0.0,Windows,10,614474abab1644252b136279,63e10c411fe3329c8004dfab,63e10f9b9d58b3b116bb4e99,614474abab1644252b136279,63e10c411fe3329c8004dfab,63e10f9b9d58b3b116bb4e99,10,,,Price of this smartphone contract: £ 642.96,50,642.96,0,180,,,,,,,,,
,7494,rating_trial,html-slider-response,5,97091,0.0-5.0,14,1,06/02/2023 14:33,ade4f6ea5f9a534a6de2afd25aaa37ca,90.202.132.131,"Mozilla/5.0 (Windows NT 10.0; Win64; x64) AppleWebKit/537.36 (KHTML, like Gecko) Chrome/109.0.0.0 Safari/537.36",WebKit,Chrome,109.0.0.0,Windows,10,614474abab1644252b136279,63e10c411fe3329c8004dfab,63e10f9b9d58b3b116bb4e99,614474abab1644252b136279,63e10c411fe3329c8004dfab,63e10f9b9d58b3b116bb4e99,25,,,Price of this smartphone contract: £ 552,50,552,1,180,,,,,,,,,
,5742,rating_trial,html-slider-response,6,102835,0.0-6.0,14,1,06/02/2023 14:33,ade4f6ea5f9a534a6de2afd25aaa37ca,90.202.132.131,"Mozilla/5.0 (Windows NT 10.0; Win64; x64) AppleWebKit/537.36 (KHTML, like Gecko) Chrome/109.0.0.0 Safari/537.36",WebKit,Chrome,109.0.0.0,Windows,10,614474abab1644252b136279,63e10c411fe3329c8004dfab,63e10f9b9d58b3b116bb4e99,614474abab1644252b136279,63e10c411fe3329c8004dfab,63e10f9b9d58b3b116bb4e99,5,,,Price of this smartphone contract: £ 799.99,50,799.99,2,180,,,,,,,,,
,3350,rating_trial,html-slider-response,7,106187,0.0-7.0,14,1,06/02/2023 14:33,ade4f6ea5f9a534a6de2afd25aaa37ca,90.202.132.131,"Mozilla/5.0 (Windows NT 10.0; Win64; x64) AppleWebKit/537.36 (KHTML, like Gecko) Chrome/109.0.0.0 Safari/537.36",WebKit,Chrome,109.0.0.0,Windows,10,614474abab1644252b136279,63e10c411fe3329c8004dfab,63e10f9b9d58b3b116bb4e99,614474abab1644252b136279,63e10c411fe3329c8004dfab,63e10f9b9d58b3b116bb4e99,1,,,Price of this smartphone contract: £ 945.99,50,945.99,3,180,,,,,,,,,
,5454,rating_trial,html-slider-response,8,111643,0.0-8.0,14,1,06/02/2023 14:33,ade4f6ea5f9a534a6de2afd25aaa37ca,90.202.132.131,"Mozilla/5.0 (Windows NT 10.0; Win64; x64) AppleWebKit/537.36 (KHTML, like Gecko) Chrome/109.0.0.0 Safari/537.36",WebKit,Chrome,109.0.0.0,Windows,10,614474abab1644252b136279,63e10c411fe3329c8004dfab,63e10f9b9d58b3b116bb4e99,614474abab1644252b136279,63e10c411fe3329c8004dfab,63e10f9b9d58b3b116bb4e99,13,,,Price of this smartphone contract: £ 795,50,795,4,180,,,,,,,,,
,4263,rating_trial,html-slider-response,9,115907,0.0-9.0,14,1,06/02/2023 14:33,ade4f6ea5f9a534a6de2afd25aaa37ca,90.202.132.131,"Mozilla/5.0 (Windows NT 10.0; Win64; x64) AppleWebKit/537.36 (KHTML, like Gecko) Chrome/109.0.0.0 Safari/537.36",WebKit,Chrome,109.0.0.0,Windows,10,614474abab1644252b136279,63e10c411fe3329c8004dfab,63e10f9b9d58b3b116bb4e99,614474abab1644252b136279,63e10c411fe3329c8004dfab,63e10f9b9d58b3b116bb4e99,1,,,Price of this smartphone contract: £ 825.99,50,825.99,5,180,,,,,,,,,
,4855,rating_trial,html-slider-response,10,120763,0.0-10.0,14,1,06/02/2023 14:33,ade4f6ea5f9a534a6de2afd25aaa37ca,90.202.132.131,"Mozilla/5.0 (Windows NT 10.0; Win64; x64) AppleWebKit/537.36 (KHTML, like Gecko) Chrome/109.0.0.0 Safari/537.36",WebKit,Chrome,109.0.0.0,Windows,10,614474abab1644252b136279,63e10c411fe3329c8004dfab,63e10f9b9d58b3b116bb4e99,614474abab1644252b136279,63e10c411fe3329c8004dfab,63e10f9b9d58b3b116bb4e99,15,,,Price of this smartphone contract: £ 744,50,744,6,180,,,,,,,,,
,3543,rating_trial,html-slider-response,11,124307,0.0-11.0,14,1,06/02/2023 14:33,ade4f6ea5f9a534a6de2afd25aaa37ca,90.202.132.131,"Mozilla/5.0 (Windows NT 10.0; Win64; x64) AppleWebKit/537.36 (KHTML, like Gecko) Chrome/109.0.0.0 Safari/537.36",WebKit,Chrome,109.0.0.0,Windows,10,614474abab1644252b136279,63e10c411fe3329c8004dfab,63e10f9b9d58b3b116bb4e99,614474abab1644252b136279,63e10c411fe3329c8004dfab,63e10f9b9d58b3b116bb4e99,0,,,Price of this smartphone contract: £ 1113.99,50,1113.99,7,180,,,,,,,,,
,3271,rating_trial,html-slider-response,12,127579,0.0-12.0,14,1,06/02/2023 14:33,ade4f6ea5f9a534a6de2afd25aaa37ca,90.202.132.131,"Mozilla/5.0 (Windows NT 10.0; Win64; x64) AppleWebKit/537.36 (KHTML, like Gecko) Chrome/109.0.0.0 Safari/537.36",WebKit,Chrome,109.0.0.0,Windows,10,614474abab1644252b136279,63e10c411fe3329c8004dfab,63e10f9b9d58b3b116bb4e99,614474abab1644252b136279,63e10c411fe3329c8004dfab,63e10f9b9d58b3b116bb4e99,16,,,Price of this smartphone contract: £ 695.76,50,695.76,8,180,,,,,,,,,
,4359,rating_trial,html-slider-response,13,131939,0.0-13.0,14,1,06/02/2023 14:33,ade4f6ea5f9a534a6de2afd25aaa37ca,90.202.132.131,"Mozilla/5.0 (Windows NT 10.0; Win64; x64) AppleWebKit/537.36 (KHTML, like Gecko) Chrome/109.0.0.0 Safari/537.36",WebKit,Chrome,109.0.0.0,Windows,10,614474abab1644252b136279,63e10c411fe3329c8004dfab,63e10f9b9d58b3b116bb4e99,614474abab1644252b136279,63e10c411fe3329c8004dfab,63e10f9b9d58b3b116bb4e99,0,,,Price of this smartphone contract: £ 1691.99,50,1691.99,9,180,,,,,,,,,
,3487,rating_trial,html-slider-response,14,135427,0.0-14.0,14,1,06/02/2023 14:33,ade4f6ea5f9a534a6de2afd25aaa37ca,90.202.132.131,"Mozilla/5.0 (Windows NT 10.0; Win64; x64) AppleWebKit/537.36 (KHTML, like Gecko) Chrome/109.0.0.0 Safari/537.36",WebKit,Chrome,109.0.0.0,Windows,10,614474abab1644252b136279,63e10c411fe3329c8004dfab,63e10f9b9d58b3b116bb4e99,614474abab1644252b136279,63e10c411fe3329c8004dfab,63e10f9b9d58b3b116bb4e99,1,,,Price of this smartphone contract: £ 917.99,50,917.99,10,180,,,,,,,,,
,2999,rating_trial,html-slider-response,15,138427,0.0-15.0,14,1,06/02/2023 14:33,ade4f6ea5f9a534a6de2afd25aaa37ca,90.202.132.131,"Mozilla/5.0 (Windows NT 10.0; Win64; x64) AppleWebKit/537.36 (KHTML, like Gecko) Chrome/109.0.0.0 Safari/537.36",WebKit,Chrome,109.0.0.0,Windows,10,614474abab1644252b136279,63e10c411fe3329c8004dfab,63e10f9b9d58b3b116bb4e99,614474abab1644252b136279,63e10c411fe3329c8004dfab,63e10f9b9d58b3b116bb4e99,0,,,Price of this smartphone contract: £ 1763.99,50,1763.99,11,180,,,,,,,,,
,3134,rating_trial,html-slider-response,16,141563,0.0-16.0,14,1,06/02/2023 14:33,ade4f6ea5f9a534a6de2afd25aaa37ca,90.202.132.131,"Mozilla/5.0 (Windows NT 10.0; Win64; x64) AppleWebKit/537.36 (KHTML, like Gecko) Chrome/109.0.0.0 Safari/537.36",WebKit,Chrome,109.0.0.0,Windows,10,614474abab1644252b136279,63e10c411fe3329c8004dfab,63e10f9b9d58b3b116bb4e99,614474abab1644252b136279,63e10c411fe3329c8004dfab,63e10f9b9d58b3b116bb4e99,0,,,Price of this smartphone contract: £ 1083,50,1083,12,180,,,,,,,,,
,7510,rating_trial,html-slider-response,17,149075,0.0-17.0,14,1,06/02/2023 14:33,ade4f6ea5f9a534a6de2afd25aaa37ca,90.202.132.131,"Mozilla/5.0 (Windows NT 10.0; Win64; x64) AppleWebKit/537.36 (KHTML, like Gecko) Chrome/109.0.0.0 Safari/537.36",WebKit,Chrome,109.0.0.0,Windows,10,614474abab1644252b136279,63e10c411fe3329c8004dfab,63e10f9b9d58b3b116bb4e99,614474abab1644252b136279,63e10c411fe3329c8004dfab,63e10f9b9d58b3b116bb4e99,26,,,Price of this smartphone contract: £ 600,50,600,13,180,,,,,,,,,
,3542,rating_trial,html-slider-response,18,152619,0.0-18.0,14,1,06/02/2023 14:33,ade4f6ea5f9a534a6de2afd25aaa37ca,90.202.132.131,"Mozilla/5.0 (Windows NT 10.0; Win64; x64) AppleWebKit/537.36 (KHTML, like Gecko) Chrome/109.0.0.0 Safari/537.36",WebKit,Chrome,109.0.0.0,Windows,10,614474abab1644252b136279,63e10c411fe3329c8004dfab,63e10f9b9d58b3b116bb4e99,614474abab1644252b136279,63e10c411fe3329c8004dfab,63e10f9b9d58b3b116bb4e99,22,,,Price of this smartphone contract: £ 893.99,50,893.99,14,180,,,,,,,,,
,4127,rating_trial,html-slider-response,19,156747,0.0-19.0,14,1,06/02/2023 14:33,ade4f6ea5f9a534a6de2afd25aaa37ca,90.202.132.131,"Mozilla/5.0 (Windows NT 10.0; Win64; x64) AppleWebKit/537.36 (KHTML, like Gecko) Chrome/109.0.0.0 Safari/537.36",WebKit,Chrome,109.0.0.0,Windows,10,614474abab1644252b136279,63e10c411fe3329c8004dfab,63e10f9b9d58b3b116bb4e99,614474abab1644252b136279,63e10c411fe3329c8004dfab,63e10f9b9d58b3b116bb4e99,13,,,Price of this smartphone contract: £ 941.99,50,941.99,15,180,,,,,,,,,
,4694,rating_trial,html-slider-response,20,161443,0.0-20.0,14,1,06/02/2023 14:33,ade4f6ea5f9a534a6de2afd25aaa37ca,90.202.132.131,"Mozilla/5.0 (Windows NT 10.0; Win64; x64) AppleWebKit/537.36 (KHTML, like Gecko) Chrome/109.0.0.0 Safari/537.36",WebKit,Chrome,109.0.0.0,Windows,10,614474abab1644252b136279,63e10c411fe3329c8004dfab,63e10f9b9d58b3b116bb4e99,614474abab1644252b136279,63e10c411fe3329c8004dfab,63e10f9b9d58b3b116bb4e99,21,,,Price of this smartphone contract: £ 768,50,768,16,180,,,,,,,,,
,3703,rating_trial,html-slider-response,21,165147,0.0-21.0,14,1,06/02/2023 14:33,ade4f6ea5f9a534a6de2afd25aaa37ca,90.202.132.131,"Mozilla/5.0 (Windows NT 10.0; Win64; x64) AppleWebKit/537.36 (KHTML, like Gecko) Chrome/109.0.0.0 Safari/537.36",WebKit,Chrome,109.0.0.0,Windows,10,614474abab1644252b136279,63e10c411fe3329c8004dfab,63e10f9b9d58b3b116bb4e99,614474abab1644252b136279,63e10c411fe3329c8004dfab,63e10f9b9d58b3b116bb4e99,0,,,Price of this smartphone contract: £ 1253.99,50,1253.99,17,180,,,,,,,,,
,4326,rating_trial,html-slider-response,22,169475,0.0-22.0,14,1,06/02/2023 14:33,ade4f6ea5f9a534a6de2afd25aaa37ca,90.202.132.131,"Mozilla/5.0 (Windows NT 10.0; Win64; x64) AppleWebKit/537.36 (KHTML, like Gecko) Chrome/109.0.0.0 Safari/537.36",WebKit,Chrome,109.0.0.0,Windows,10,614474abab1644252b136279,63e10c411fe3329c8004dfab,63e10f9b9d58b3b116bb4e99,614474abab1644252b136279,63e10c411fe3329c8004dfab,63e10f9b9d58b3b116bb4e99,20,,,Price of this smartphone contract: £ 744,50,744,18,180,,,,,,,,,
,2799,rating_trial,html-slider-response,23,172275,0.0-23.0,14,1,06/02/2023 14:33,ade4f6ea5f9a534a6de2afd25aaa37ca,90.202.132.131,"Mozilla/5.0 (Windows NT 10.0; Win64; x64) AppleWebKit/537.36 (KHTML, like Gecko) Chrome/109.0.0.0 Safari/537.36",WebKit,Chrome,109.0.0.0,Windows,10,614474abab1644252b136279,63e10c411fe3329c8004dfab,63e10f9b9d58b3b116bb4e99,614474abab1644252b136279,63e10c411fe3329c8004dfab,63e10f9b9d58b3b116bb4e99,0,,,Price of this smartphone contract: £ 1763.99,50,1763.99,19,180,,,,,,,,,
,3238,rating_trial,html-slider-response,24,175515,0.0-24.0,14,1,06/02/2023 14:33,ade4f6ea5f9a534a6de2afd25aaa37ca,90.202.132.131,"Mozilla/5.0 (Windows NT 10.0; Win64; x64) AppleWebKit/537.36 (KHTML, like Gecko) Chrome/109.0.0.0 Safari/537.36",WebKit,Chrome,109.0.0.0,Windows,10,614474abab1644252b136279,63e10c411fe3329c8004dfab,63e10f9b9d58b3b116bb4e99,614474abab1644252b136279,63e10c411fe3329c8004dfab,63e10f9b9d58b3b116bb4e99,38,,,Price of this smartphone contract: £ 631.99,50,631.99,20,180,,,,,,,,,
,5711,rating_trial,html-slider-response,25,181226,0.0-25.0,14,1,06/02/2023 14:33,ade4f6ea5f9a534a6de2afd25aaa37ca,90.202.132.131,"Mozilla/5.0 (Windows NT 10.0; Win64; x64) AppleWebKit/537.36 (KHTML, like Gecko) Chrome/109.0.0.0 Safari/537.36",WebKit,Chrome,109.0.0.0,Windows,10,614474abab1644252b136279,63e10c411fe3329c8004dfab,63e10f9b9d58b3b116bb4e99,614474abab1644252b136279,63e10c411fe3329c8004dfab,63e10f9b9d58b3b116bb4e99,30,,,Price of this smartphone contract: £ 769.75,50,769.75,21,180,,,,,,,,,
,3486,rating_trial,html-slider-response,26,184714,0.0-26.0,14,1,06/02/2023 14:33,ade4f6ea5f9a534a6de2afd25aaa37ca,90.202.132.131,"Mozilla/5.0 (Windows NT 10.0; Win64; x64) AppleWebKit/537.36 (KHTML, like Gecko) Chrome/109.0.0.0 Safari/537.36",WebKit,Chrome,109.0.0.0,Windows,10,614474abab1644252b136279,63e10c411fe3329c8004dfab,63e10f9b9d58b3b116bb4e99,614474abab1644252b136279,63e10c411fe3329c8004dfab,63e10f9b9d58b3b116bb4e99,7,,,Price of this smartphone contract: £ 918.99,50,918.99,22,180,,,,,,,,,
,2847,rating_trial,html-slider-response,27,187562,0.0-27.0,14,1,06/02/2023 14:33,ade4f6ea5f9a534a6de2afd25aaa37ca,90.202.132.131,"Mozilla/5.0 (Windows NT 10.0; Win64; x64) AppleWebKit/537.36 (KHTML, like Gecko) Chrome/109.0.0.0 Safari/537.36",WebKit,Chrome,109.0.0.0,Windows,10,614474abab1644252b136279,63e10c411fe3329c8004dfab,63e10f9b9d58b3b116bb4e99,614474abab1644252b136279,63e10c411fe3329c8004dfab,63e10f9b9d58b3b116bb4e99,33,,,Price of this smartphone contract: £ 735.99,50,735.99,23,180,,,,,,,,,
,3062,rating_trial,html-slider-response,28,190626,0.0-28.0,14,1,06/02/2023 14:33,ade4f6ea5f9a534a6de2afd25aaa37ca,90.202.132.131,"Mozilla/5.0 (Windows NT 10.0; Win64; x64) AppleWebKit/537.36 (KHTML, like Gecko) Chrome/109.0.0.0 Safari/537.36",WebKit,Chrome,109.0.0.0,Windows,10,614474abab1644252b136279,63e10c411fe3329c8004dfab,63e10f9b9d58b3b116bb4e99,614474abab1644252b136279,63e10c411fe3329c8004dfab,63e10f9b9d58b3b116bb4e99,23,,,Price of this smartphone contract: £ 912,50,912,24,180,,,,,,,,,
,3070,rating_trial,html-slider-response,29,193698,0.0-29.0,14,1,06/02/2023 14:33,ade4f6ea5f9a534a6de2afd25aaa37ca,90.202.132.131,"Mozilla/5.0 (Windows NT 10.0; Win64; x64) AppleWebKit/537.36 (KHTML, like Gecko) Chrome/109.0.0.0 Safari/537.36",WebKit,Chrome,109.0.0.0,Windows,10,614474abab1644252b136279,63e10c411fe3329c8004dfab,63e10f9b9d58b3b116bb4e99,614474abab1644252b136279,63e10c411fe3329c8004dfab,63e10f9b9d58b3b116bb4e99,23,,,Price of this smartphone contract: £ 843,50,843,25,180,,,,,,,,,
,2550,rating_trial,html-slider-response,30,196250,0.0-30.0,14,1,06/02/2023 14:33,ade4f6ea5f9a534a6de2afd25aaa37ca,90.202.132.131,"Mozilla/5.0 (Windows NT 10.0; Win64; x64) AppleWebKit/537.36 (KHTML, like Gecko) Chrome/109.0.0.0 Safari/537.36",WebKit,Chrome,109.0.0.0,Windows,10,614474abab1644252b136279,63e10c411fe3329c8004dfab,63e10f9b9d58b3b116bb4e99,614474abab1644252b136279,63e10c411fe3329c8004dfab,63e10f9b9d58b3b116bb4e99,23,,,Price of this smartphone contract: £ 875.99,50,875.99,26,180,,,,,,,,,
,2615,rating_trial,html-slider-response,31,198866,0.0-31.0,14,1,06/02/2023 14:33,ade4f6ea5f9a534a6de2afd25aaa37ca,90.202.132.131,"Mozilla/5.0 (Windows NT 10.0; Win64; x64) AppleWebKit/537.36 (KHTML, like Gecko) Chrome/109.0.0.0 Safari/537.36",WebKit,Chrome,109.0.0.0,Windows,10,614474abab1644252b136279,63e10c411fe3329c8004dfab,63e10f9b9d58b3b116bb4e99,614474abab1644252b136279,63e10c411fe3329c8004dfab,63e10f9b9d58b3b116bb4e99,27,,,Price of this smartphone contract: £ 745.99,50,745.99,27,180,,,,,,,,,
,3071,rating_trial,html-slider-response,32,201938,0.0-32.0,14,1,06/02/2023 14:33,ade4f6ea5f9a534a6de2afd25aaa37ca,90.202.132.131,"Mozilla/5.0 (Windows NT 10.0; Win64; x64) AppleWebKit/537.36 (KHTML, like Gecko) Chrome/109.0.0.0 Safari/537.36",WebKit,Chrome,109.0.0.0,Windows,10,614474abab1644252b136279,63e10c411fe3329c8004dfab,63e10f9b9d58b3b116bb4e99,614474abab1644252b136279,63e10c411fe3329c8004dfab,63e10f9b9d58b3b116bb4e99,23,,,Price of this smartphone contract: £ 845.99,50,845.99,28,180,,,,,,,,,
,2566,rating_trial,html-slider-response,33,204506,0.0-33.0,14,1,06/02/2023 14:33,ade4f6ea5f9a534a6de2afd25aaa37ca,90.202.132.131,"Mozilla/5.0 (Windows NT 10.0; Win64; x64) AppleWebKit/537.36 (KHTML, like Gecko) Chrome/109.0.0.0 Safari/537.36",WebKit,Chrome,109.0.0.0,Windows,10,614474abab1644252b136279,63e10c411fe3329c8004dfab,63e10f9b9d58b3b116bb4e99,614474abab1644252b136279,63e10c411fe3329c8004dfab,63e10f9b9d58b3b116bb4e99,22,,,Price of this smartphone contract: £ 811,50,811,29,180,,,,,,,,,
,4166,rating_trial,html-slider-response,34,208674,0.0-34.0,14,1,06/02/2023 14:33,ade4f6ea5f9a534a6de2afd25aaa37ca,90.202.132.131,"Mozilla/5.0 (Windows NT 10.0; Win64; x64) AppleWebKit/537.36 (KHTML, like Gecko) Chrome/109.0.0.0 Safari/537.36",WebKit,Chrome,109.0.0.0,Windows,10,614474abab1644252b136279,63e10c411fe3329c8004dfab,63e10f9b9d58b3b116bb4e99,614474abab1644252b136279,63e10c411fe3329c8004dfab,63e10f9b9d58b3b116bb4e99,54,,,Price of this smartphone contract: £ 551.76,50,551.76,30,180,,,,,,,,,
,3550,rating_trial,html-slider-response,35,212226,0.0-35.0,14,1,06/02/2023 14:33,ade4f6ea5f9a534a6de2afd25aaa37ca,90.202.132.131,"Mozilla/5.0 (Windows NT 10.0; Win64; x64) AppleWebKit/537.36 (KHTML, like Gecko) Chrome/109.0.0.0 Safari/537.36",WebKit,Chrome,109.0.0.0,Windows,10,614474abab1644252b136279,63e10c411fe3329c8004dfab,63e10f9b9d58b3b116bb4e99,614474abab1644252b136279,63e10c411fe3329c8004dfab,63e10f9b9d58b3b116bb4e99,0,,,Price of this smartphone contract: £ 1155,50,1155,31,180,,,,,,,,,
,2358,rating_trial,html-slider-response,36,214586,0.0-36.0,14,1,06/02/2023 14:33,ade4f6ea5f9a534a6de2afd25aaa37ca,90.202.132.131,"Mozilla/5.0 (Windows NT 10.0; Win64; x64) AppleWebKit/537.36 (KHTML, like Gecko) Chrome/109.0.0.0 Safari/537.36",WebKit,Chrome,109.0.0.0,Windows,10,614474abab1644252b136279,63e10c411fe3329c8004dfab,63e10f9b9d58b3b116bb4e99,614474abab1644252b136279,63e10c411fe3329c8004dfab,63e10f9b9d58b3b116bb4e99,32,,,Price of this smartphone contract: £ 779,50,779,32,180,,,,,,,,,
,3046,rating_trial,html-slider-response,37,217634,0.0-37.0,14,1,06/02/2023 14:33,ade4f6ea5f9a534a6de2afd25aaa37ca,90.202.132.131,"Mozilla/5.0 (Windows NT 10.0; Win64; x64) AppleWebKit/537.36 (KHTML, like Gecko) Chrome/109.0.0.0 Safari/537.36",WebKit,Chrome,109.0.0.0,Windows,10,614474abab1644252b136279,63e10c411fe3329c8004dfab,63e10f9b9d58b3b116bb4e99,614474abab1644252b136279,63e10c411fe3329c8004dfab,63e10f9b9d58b3b116bb4e99,61,,,Price of this smartphone contract: £ 590.99,50,590.99,33,180,,,,,,,,,
,2942,rating_trial,html-slider-response,38,220578,0.0-38.0,14,1,06/02/2023 14:33,ade4f6ea5f9a534a6de2afd25aaa37ca,90.202.132.131,"Mozilla/5.0 (Windows NT 10.0; Win64; x64) AppleWebKit/537.36 (KHTML, like Gecko) Chrome/109.0.0.0 Safari/537.36",WebKit,Chrome,109.0.0.0,Windows,10,614474abab1644252b136279,63e10c411fe3329c8004dfab,63e10f9b9d58b3b116bb4e99,614474abab1644252b136279,63e10c411fe3329c8004dfab,63e10f9b9d58b3b116bb4e99,0,,,Price of this smartphone contract: £ 1133.99,50,1133.99,34,180,,,,,,,,,
,2686,rating_trial,html-slider-response,39,223266,0.0-39.0,14,1,06/02/2023 14:33,ade4f6ea5f9a534a6de2afd25aaa37ca,90.202.132.131,"Mozilla/5.0 (Windows NT 10.0; Win64; x64) AppleWebKit/537.36 (KHTML, like Gecko) Chrome/109.0.0.0 Safari/537.36",WebKit,Chrome,109.0.0.0,Windows,10,614474abab1644252b136279,63e10c411fe3329c8004dfab,63e10f9b9d58b3b116bb4e99,614474abab1644252b136279,63e10c411fe3329c8004dfab,63e10f9b9d58b3b116bb4e99,15,,,Price of this smartphone contract: £ 935,50,935,35,180,,,,,,,,,
,2485,rating_trial,html-slider-response,40,225754,0.0-40.0,14,1,06/02/2023 14:33,ade4f6ea5f9a534a6de2afd25aaa37ca,90.202.132.131,"Mozilla/5.0 (Windows NT 10.0; Win64; x64) AppleWebKit/537.36 (KHTML, like Gecko) Chrome/109.0.0.0 Safari/537.36",WebKit,Chrome,109.0.0.0,Windows,10,614474abab1644252b136279,63e10c411fe3329c8004dfab,63e10f9b9d58b3b116bb4e99,614474abab1644252b136279,63e10c411fe3329c8004dfab,63e10f9b9d58b3b116bb4e99,0,,,Price of this smartphone contract: £ 1065.99,50,1065.99,36,180,,,,,,,,,
,2206,rating_trial,html-slider-response,41,227962,0.0-41.0,14,1,06/02/2023 14:33,ade4f6ea5f9a534a6de2afd25aaa37ca,90.202.132.131,"Mozilla/5.0 (Windows NT 10.0; Win64; x64) AppleWebKit/537.36 (KHTML, like Gecko) Chrome/109.0.0.0 Safari/537.36",WebKit,Chrome,109.0.0.0,Windows,10,614474abab1644252b136279,63e10c411fe3329c8004dfab,63e10f9b9d58b3b116bb4e99,614474abab1644252b136279,63e10c411fe3329c8004dfab,63e10f9b9d58b3b116bb4e99,14,,,Price of this smartphone contract: £ 801.99,50,801.99,37,180,,,,,,,,,
,2301,rating_trial,html-slider-response,42,230267,0.0-42.0,14,1,06/02/2023 14:33,ade4f6ea5f9a534a6de2afd25aaa37ca,90.202.132.131,"Mozilla/5.0 (Windows NT 10.0; Win64; x64) AppleWebKit/537.36 (KHTML, like Gecko) Chrome/109.0.0.0 Safari/537.36",WebKit,Chrome,109.0.0.0,Windows,10,614474abab1644252b136279,63e10c411fe3329c8004dfab,63e10f9b9d58b3b116bb4e99,614474abab1644252b136279,63e10c411fe3329c8004dfab,63e10f9b9d58b3b116bb4e99,9,,,Price of this smartphone contract: £ 871.99,50,871.99,38,180,,,,,,,,,
,2334,rating_trial,html-slider-response,43,232602,0.0-43.0,14,1,06/02/2023 14:33,ade4f6ea5f9a534a6de2afd25aaa37ca,90.202.132.131,"Mozilla/5.0 (Windows NT 10.0; Win64; x64) AppleWebKit/537.36 (KHTML, like Gecko) Chrome/109.0.0.0 Safari/537.36",WebKit,Chrome,109.0.0.0,Windows,10,614474abab1644252b136279,63e10c411fe3329c8004dfab,63e10f9b9d58b3b116bb4e99,614474abab1644252b136279,63e10c411fe3329c8004dfab,63e10f9b9d58b3b116bb4e99,45,,,Price of this smartphone contract: £ 631.92,50,631.92,39,180,,,,,,,,,
,2454,rating_trial,html-slider-response,44,235058,0.0-44.0,14,1,06/02/2023 14:33,ade4f6ea5f9a534a6de2afd25aaa37ca,90.202.132.131,"Mozilla/5.0 (Windows NT 10.0; Win64; x64) AppleWebKit/537.36 (KHTML, like Gecko) Chrome/109.0.0.0 Safari/537.36",WebKit,Chrome,109.0.0.0,Windows,10,614474abab1644252b136279,63e10c411fe3329c8004dfab,63e10f9b9d58b3b116bb4e99,614474abab1644252b136279,63e10c411fe3329c8004dfab,63e10f9b9d58b3b116bb4e99,0,,,Price of this smartphone contract: £ 1008,50,1008,40,180,,,,,,,,,
,3278,rating_trial,html-slider-response,45,238339,0.0-45.0,14,1,06/02/2023 14:33,ade4f6ea5f9a534a6de2afd25aaa37ca,90.202.132.131,"Mozilla/5.0 (Windows NT 10.0; Win64; x64) AppleWebKit/537.36 (KHTML, like Gecko) Chrome/109.0.0.0 Safari/537.36",WebKit,Chrome,109.0.0.0,Windows,10,614474abab1644252b136279,63e10c411fe3329c8004dfab,63e10f9b9d58b3b116bb4e99,614474abab1644252b136279,63e10c411fe3329c8004dfab,63e10f9b9d58b3b116bb4e99,19,,,Price of this smartphone contract: £ 845.99,50,845.99,41,180,,,,,,,,,
,6118,rating_trial,html-slider-response,46,244459,0.0-46.0,14,1,06/02/2023 14:33,ade4f6ea5f9a534a6de2afd25aaa37ca,90.202.132.131,"Mozilla/5.0 (Windows NT 10.0; Win64; x64) AppleWebKit/537.36 (KHTML, like Gecko) Chrome/109.0.0.0 Safari/537.36",WebKit,Chrome,109.0.0.0,Windows,10,614474abab1644252b136279,63e10c411fe3329c8004dfab,63e10f9b9d58b3b116bb4e99,614474abab1644252b136279,63e10c411fe3329c8004dfab,63e10f9b9d58b3b116bb4e99,10,,,Price of this smartphone contract: £ 989.99,50,989.99,42,180,,,,,,,,,
,2822,rating_trial,html-slider-response,47,247283,0.0-47.0,14,1,06/02/2023 14:33,ade4f6ea5f9a534a6de2afd25aaa37ca,90.202.132.131,"Mozilla/5.0 (Windows NT 10.0; Win64; x64) AppleWebKit/537.36 (KHTML, like Gecko) Chrome/109.0.0.0 Safari/537.36",WebKit,Chrome,109.0.0.0,Windows,10,614474abab1644252b136279,63e10c411fe3329c8004dfab,63e10f9b9d58b3b116bb4e99,614474abab1644252b136279,63e10c411fe3329c8004dfab,63e10f9b9d58b3b116bb4e99,21,,,Price of this smartphone contract: £ 839.75,50,839.75,43,180,,,,,,,,,
,2694,rating_trial,html-slider-response,48,249979,0.0-48.0,14,1,06/02/2023 14:33,ade4f6ea5f9a534a6de2afd25aaa37ca,90.202.132.131,"Mozilla/5.0 (Windows NT 10.0; Win64; x64) AppleWebKit/537.36 (KHTML, like Gecko) Chrome/109.0.0.0 Safari/537.36",WebKit,Chrome,109.0.0.0,Windows,10,614474abab1644252b136279,63e10c411fe3329c8004dfab,63e10f9b9d58b3b116bb4e99,614474abab1644252b136279,63e10c411fe3329c8004dfab,63e10f9b9d58b3b116bb4e99,29,,,Price of this smartphone contract: £ 798.99,50,798.99,44,180,,,,,,,,,
,2590,rating_trial,html-slider-response,49,252571,0.0-49.0,14,1,06/02/2023 14:33,ade4f6ea5f9a534a6de2afd25aaa37ca,90.202.132.131,"Mozilla/5.0 (Windows NT 10.0; Win64; x64) AppleWebKit/537.36 (KHTML, like Gecko) Chrome/109.0.0.0 Safari/537.36",WebKit,Chrome,109.0.0.0,Windows,10,614474abab1644252b136279,63e10c411fe3329c8004dfab,63e10f9b9d58b3b116bb4e99,614474abab1644252b136279,63e10c411fe3329c8004dfab,63e10f9b9d58b3b116bb4e99,59,,,Price of this smartphone contract: £ 551.76,50,551.76,45,180,,,,,,,,,
,2814,rating_trial,html-slider-response,50,255387,0.0-50.0,14,1,06/02/2023 14:33,ade4f6ea5f9a534a6de2afd25aaa37ca,90.202.132.131,"Mozilla/5.0 (Windows NT 10.0; Win64; x64) AppleWebKit/537.36 (KHTML, like Gecko) Chrome/109.0.0.0 Safari/537.36",WebKit,Chrome,109.0.0.0,Windows,10,614474abab1644252b136279,63e10c411fe3329c8004dfab,63e10f9b9d58b3b116bb4e99,614474abab1644252b136279,63e10c411fe3329c8004dfab,63e10f9b9d58b3b116bb4e99,0,,,Price of this smartphone contract: £ 1345,50,1345,46,180,,,,,,,,,
,2485,rating_trial,html-slider-response,51,257875,0.0-51.0,14,1,06/02/2023 14:33,ade4f6ea5f9a534a6de2afd25aaa37ca,90.202.132.131,"Mozilla/5.0 (Windows NT 10.0; Win64; x64) AppleWebKit/537.36 (KHTML, like Gecko) Chrome/109.0.0.0 Safari/537.36",WebKit,Chrome,109.0.0.0,Windows,10,614474abab1644252b136279,63e10c411fe3329c8004dfab,63e10f9b9d58b3b116bb4e99,614474abab1644252b136279,63e10c411fe3329c8004dfab,63e10f9b9d58b3b116bb4e99,0,,,Price of this smartphone contract: £ 1032,50,1032,47,180,,,,,,,,,
,2222,rating_trial,html-slider-response,52,260099,0.0-52.0,14,1,06/02/2023 14:33,ade4f6ea5f9a534a6de2afd25aaa37ca,90.202.132.131,"Mozilla/5.0 (Windows NT 10.0; Win64; x64) AppleWebKit/537.36 (KHTML, like Gecko) Chrome/109.0.0.0 Safari/537.36",WebKit,Chrome,109.0.0.0,Windows,10,614474abab1644252b136279,63e10c411fe3329c8004dfab,63e10f9b9d58b3b116bb4e99,614474abab1644252b136279,63e10c411fe3329c8004dfab,63e10f9b9d58b3b116bb4e99,0,,,Price of this smartphone contract: £ 1187.99,50,1187.99,48,180,,,,,,,,,
,2734,rating_trial,html-slider-response,53,262835,0.0-53.0,14,1,06/02/2023 14:33,ade4f6ea5f9a534a6de2afd25aaa37ca,90.202.132.131,"Mozilla/5.0 (Windows NT 10.0; Win64; x64) AppleWebKit/537.36 (KHTML, like Gecko) Chrome/109.0.0.0 Safari/537.36",WebKit,Chrome,109.0.0.0,Windows,10,614474abab1644252b136279,63e10c411fe3329c8004dfab,63e10f9b9d58b3b116bb4e99,614474abab1644252b136279,63e10c411fe3329c8004dfab,63e10f9b9d58b3b116bb4e99,32,,,Price of this smartphone contract: £ 787,50,787,49,180,,,,,,,,,
,2701,rating_trial,html-slider-response,54,265539,0.0-54.0,14,1,06/02/2023 14:33,ade4f6ea5f9a534a6de2afd25aaa37ca,90.202.132.131,"Mozilla/5.0 (Windows NT 10.0; Win64; x64) AppleWebKit/537.36 (KHTML, like Gecko) Chrome/109.0.0.0 Safari/537.36",WebKit,Chrome,109.0.0.0,Windows,10,614474abab1644252b136279,63e10c411fe3329c8004dfab,63e10f9b9d58b3b116bb4e99,614474abab1644252b136279,63e10c411fe3329c8004dfab,63e10f9b9d58b3b116bb4e99,29,,,Price of this smartphone contract: £ 864,50,864,50,180,,,,,,,,,
,2678,rating_trial,html-slider-response,55,268219,0.0-55.0,14,1,06/02/2023 14:33,ade4f6ea5f9a534a6de2afd25aaa37ca,90.202.132.131,"Mozilla/5.0 (Windows NT 10.0; Win64; x64) AppleWebKit/537.36 (KHTML, like Gecko) Chrome/109.0.0.0 Safari/537.36",WebKit,Chrome,109.0.0.0,Windows,10,614474abab1644252b136279,63e10c411fe3329c8004dfab,63e10f9b9d58b3b116bb4e99,614474abab1644252b136279,63e10c411fe3329c8004dfab,63e10f9b9d58b3b116bb4e99,36,,,Price of this smartphone contract: £ 746.99,50,746.99,51,180,,,,,,,,,
,3916,rating_trial,html-slider-response,56,272139,0.0-56.0,14,1,06/02/2023 14:33,ade4f6ea5f9a534a6de2afd25aaa37ca,90.202.132.131,"Mozilla/5.0 (Windows NT 10.0; Win64; x64) AppleWebKit/537.36 (KHTML, like Gecko) Chrome/109.0.0.0 Safari/537.36",WebKit,Chrome,109.0.0.0,Windows,10,614474abab1644252b136279,63e10c411fe3329c8004dfab,63e10f9b9d58b3b116bb4e99,614474abab1644252b136279,63e10c411fe3329c8004dfab,63e10f9b9d58b3b116bb4e99,26,,,Price of this smartphone contract: £ 887.99,50,887.99,52,180,,,,,,,,,
,2694,rating_trial,html-slider-response,57,274835,0.0-57.0,14,1,06/02/2023 14:33,ade4f6ea5f9a534a6de2afd25aaa37ca,90.202.132.131,"Mozilla/5.0 (Windows NT 10.0; Win64; x64) AppleWebKit/537.36 (KHTML, like Gecko) Chrome/109.0.0.0 Safari/537.36",WebKit,Chrome,109.0.0.0,Windows,10,614474abab1644252b136279,63e10c411fe3329c8004dfab,63e10f9b9d58b3b116bb4e99,614474abab1644252b136279,63e10c411fe3329c8004dfab,63e10f9b9d58b3b116bb4e99,0,,,Price of this smartphone contract: £ 1032,50,1032,53,180,,,,,,,,,
,2470,rating_trial,html-slider-response,58,277307,0.0-58.0,14,1,06/02/2023 14:33,ade4f6ea5f9a534a6de2afd25aaa37ca,90.202.132.131,"Mozilla/5.0 (Windows NT 10.0; Win64; x64) AppleWebKit/537.36 (KHTML, like Gecko) Chrome/109.0.0.0 Safari/537.36",WebKit,Chrome,109.0.0.0,Windows,10,614474abab1644252b136279,63e10c411fe3329c8004dfab,63e10f9b9d58b3b116bb4e99,614474abab1644252b136279,63e10c411fe3329c8004dfab,63e10f9b9d58b3b116bb4e99,6,,,Price of this smartphone contract: £ 915,50,915,54,180,,,,,,,,,
,2262,rating_trial,html-slider-response,59,279571,0.0-59.0,14,1,06/02/2023 14:33,ade4f6ea5f9a534a6de2afd25aaa37ca,90.202.132.131,"Mozilla/5.0 (Windows NT 10.0; Win64; x64) AppleWebKit/537.36 (KHTML, like Gecko) Chrome/109.0.0.0 Safari/537.36",WebKit,Chrome,109.0.0.0,Windows,10,614474abab1644252b136279,63e10c411fe3329c8004dfab,63e10f9b9d58b3b116bb4e99,614474abab1644252b136279,63e10c411fe3329c8004dfab,63e10f9b9d58b3b116bb4e99,0,,,Price of this smartphone contract: £ 1139.99,50,1139.99,55,180,,,,,,,,,
,12358,rating_trial,html-slider-response,60,291931,0.0-60.0,14,1,06/02/2023 14:33,ade4f6ea5f9a534a6de2afd25aaa37ca,90.202.132.131,"Mozilla/5.0 (Windows NT 10.0; Win64; x64) AppleWebKit/537.36 (KHTML, like Gecko) Chrome/109.0.0.0 Safari/537.36",WebKit,Chrome,109.0.0.0,Windows,10,614474abab1644252b136279,63e10c411fe3329c8004dfab,63e10f9b9d58b3b116bb4e99,614474abab1644252b136279,63e10c411fe3329c8004dfab,63e10f9b9d58b3b116bb4e99,63,,,Price of this smartphone contract: £ 504,50,504,56,180,,,,,,,,,
,3069,rating_trial,html-slider-response,61,295003,0.0-61.0,14,1,06/02/2023 14:33,ade4f6ea5f9a534a6de2afd25aaa37ca,90.202.132.131,"Mozilla/5.0 (Windows NT 10.0; Win64; x64) AppleWebKit/537.36 (KHTML, like Gecko) Chrome/109.0.0.0 Safari/537.36",WebKit,Chrome,109.0.0.0,Windows,10,614474abab1644252b136279,63e10c411fe3329c8004dfab,63e10f9b9d58b3b116bb4e99,614474abab1644252b136279,63e10c411fe3329c8004dfab,63e10f9b9d58b3b116bb4e99,21,,,Price of this smartphone contract: £ 893.99,50,893.99,57,180,,,,,,,,,
,2493,rating_trial,html-slider-response,62,297499,0.0-62.0,14,1,06/02/2023 14:33,ade4f6ea5f9a534a6de2afd25aaa37ca,90.202.132.131,"Mozilla/5.0 (Windows NT 10.0; Win64; x64) AppleWebKit/537.36 (KHTML, like Gecko) Chrome/109.0.0.0 Safari/537.36",WebKit,Chrome,109.0.0.0,Windows,10,614474abab1644252b136279,63e10c411fe3329c8004dfab,63e10f9b9d58b3b116bb4e99,614474abab1644252b136279,63e10c411fe3329c8004dfab,63e10f9b9d58b3b116bb4e99,0,,,Price of this smartphone contract: £ 1061.99,50,1061.99,58,180,,,,,,,,,
,3062,rating_trial,html-slider-response,63,300562,0.0-63.0,14,1,06/02/2023 14:33,ade4f6ea5f9a534a6de2afd25aaa37ca,90.202.132.131,"Mozilla/5.0 (Windows NT 10.0; Win64; x64) AppleWebKit/537.36 (KHTML, like Gecko) Chrome/109.0.0.0 Safari/537.36",WebKit,Chrome,109.0.0.0,Windows,10,614474abab1644252b136279,63e10c411fe3329c8004dfab,63e10f9b9d58b3b116bb4e99,614474abab1644252b136279,63e10c411fe3329c8004dfab,63e10f9b9d58b3b116bb4e99,64,,,Price of this smartphone contract: £ 624,50,624,59,180,,,,,,,,,
,6261,rating_trial,html-slider-response,64,306826,0.0-64.0,14,1,06/02/2023 14:33,ade4f6ea5f9a534a6de2afd25aaa37ca,90.202.132.131,"Mozilla/5.0 (Windows NT 10.0; Win64; x64) AppleWebKit/537.36 (KHTML, like Gecko) Chrome/109.0.0.0 Safari/537.36",WebKit,Chrome,109.0.0.0,Windows,10,614474abab1644252b136279,63e10c411fe3329c8004dfab,63e10f9b9d58b3b116bb4e99,614474abab1644252b136279,63e10c411fe3329c8004dfab,63e10f9b9d58b3b116bb4e99,20,,,Price of this smartphone contract: £ 865.99,50,865.99,60,180,,,,,,,,,
,3030,rating_trial,html-slider-response,65,309858,0.0-65.0,14,1,06/02/2023 14:33,ade4f6ea5f9a534a6de2afd25aaa37ca,90.202.132.131,"Mozilla/5.0 (Windows NT 10.0; Win64; x64) AppleWebKit/537.36 (KHTML, like Gecko) Chrome/109.0.0.0 Safari/537.36",WebKit,Chrome,109.0.0.0,Windows,10,614474abab1644252b136279,63e10c411fe3329c8004dfab,63e10f9b9d58b3b116bb4e99,614474abab1644252b136279,63e10c411fe3329c8004dfab,63e10f9b9d58b3b116bb4e99,28,,,Price of this smartphone contract: £ 825.99,50,825.99,61,180,,,,,,,,,
,3318,rating_trial,html-slider-response,66,313178,0.0-66.0,14,1,06/02/2023 14:33,ade4f6ea5f9a534a6de2afd25aaa37ca,90.202.132.131,"Mozilla/5.0 (Windows NT 10.0; Win64; x64) AppleWebKit/537.36 (KHTML, like Gecko) Chrome/109.0.0.0 Safari/537.36",WebKit,Chrome,109.0.0.0,Windows,10,614474abab1644252b136279,63e10c411fe3329c8004dfab,63e10f9b9d58b3b116bb4e99,614474abab1644252b136279,63e10c411fe3329c8004dfab,63e10f9b9d58b3b116bb4e99,17,,,Price of this smartphone contract: £ 909.99,50,909.99,62,180,,,,,,,,,
,2189,rating_trial,html-slider-response,67,315370,0.0-67.0,14,1,06/02/2023 14:33,ade4f6ea5f9a534a6de2afd25aaa37ca,90.202.132.131,"Mozilla/5.0 (Windows NT 10.0; Win64; x64) AppleWebKit/537.36 (KHTML, like Gecko) Chrome/109.0.0.0 Safari/537.36",WebKit,Chrome,109.0.0.0,Windows,10,614474abab1644252b136279,63e10c411fe3329c8004dfab,63e10f9b9d58b3b116bb4e99,614474abab1644252b136279,63e10c411fe3329c8004dfab,63e10f9b9d58b3b116bb4e99,17,,,Price of this smartphone contract: £ 923.99,50,923.99,63,180,,,,,,,,,
,3157,rating_trial,html-slider-response,68,318530,0.0-68.0,14,1,06/02/2023 14:33,ade4f6ea5f9a534a6de2afd25aaa37ca,90.202.132.131,"Mozilla/5.0 (Windows NT 10.0; Win64; x64) AppleWebKit/537.36 (KHTML, like Gecko) Chrome/109.0.0.0 Safari/537.36",WebKit,Chrome,109.0.0.0,Windows,10,614474abab1644252b136279,63e10c411fe3329c8004dfab,63e10f9b9d58b3b116bb4e99,614474abab1644252b136279,63e10c411fe3329c8004dfab,63e10f9b9d58b3b116bb4e99,16,,,Price of this smartphone contract: £ 912,50,912,64,180,,,,,,,,,
,2997,rating_trial,html-slider-response,69,321530,0.0-69.0,14,1,06/02/2023 14:33,ade4f6ea5f9a534a6de2afd25aaa37ca,90.202.132.131,"Mozilla/5.0 (Windows NT 10.0; Win64; x64) AppleWebKit/537.36 (KHTML, like Gecko) Chrome/109.0.0.0 Safari/537.36",WebKit,Chrome,109.0.0.0,Windows,10,614474abab1644252b136279,63e10c411fe3329c8004dfab,63e10f9b9d58b3b116bb4e99,614474abab1644252b136279,63e10c411fe3329c8004dfab,63e10f9b9d58b3b116bb4e99,53,,,Price of this smartphone contract: £ 667,50,667,65,180,,,,,,,,,
,21893,rating_trial,html-slider-response,70,343426,0.0-70.0,14,1,06/02/2023 14:33,ade4f6ea5f9a534a6de2afd25aaa37ca,90.202.132.131,"Mozilla/5.0 (Windows NT 10.0; Win64; x64) AppleWebKit/537.36 (KHTML, like Gecko) Chrome/109.0.0.0 Safari/537.36",WebKit,Chrome,109.0.0.0,Windows,10,614474abab1644252b136279,63e10c411fe3329c8004dfab,63e10f9b9d58b3b116bb4e99,614474abab1644252b136279,63e10c411fe3329c8004dfab,63e10f9b9d58b3b116bb4e99,14,,,Price of this smartphone contract: £ 989.99,50,989.99,66,180,,,,,,,,,
,5837,rating_trial,html-slider-response,71,349266,0.0-71.0,14,1,06/02/2023 14:33,ade4f6ea5f9a534a6de2afd25aaa37ca,90.202.132.131,"Mozilla/5.0 (Windows NT 10.0; Win64; x64) AppleWebKit/537.36 (KHTML, like Gecko) Chrome/109.0.0.0 Safari/537.36",WebKit,Chrome,109.0.0.0,Windows,10,614474abab1644252b136279,63e10c411fe3329c8004dfab,63e10f9b9d58b3b116bb4e99,614474abab1644252b136279,63e10c411fe3329c8004dfab,63e10f9b9d58b3b116bb4e99,88,,,Price of this smartphone contract: £ 383.76,50,383.76,67,180,,,,,,,,,
,3598,rating_trial,html-slider-response,72,352866,0.0-72.0,14,1,06/02/2023 14:33,ade4f6ea5f9a534a6de2afd25aaa37ca,90.202.132.131,"Mozilla/5.0 (Windows NT 10.0; Win64; x64) AppleWebKit/537.36 (KHTML, like Gecko) Chrome/109.0.0.0 Safari/537.36",WebKit,Chrome,109.0.0.0,Windows,10,614474abab1644252b136279,63e10c411fe3329c8004dfab,63e10f9b9d58b3b116bb4e99,614474abab1644252b136279,63e10c411fe3329c8004dfab,63e10f9b9d58b3b116bb4e99,62,,,Price of this smartphone contract: £ 646.08,50,646.08,68,180,,,,,,,,,
,3141,rating_trial,html-slider-response,73,356010,0.0-73.0,14,1,06/02/2023 14:33,ade4f6ea5f9a534a6de2afd25aaa37ca,90.202.132.131,"Mozilla/5.0 (Windows NT 10.0; Win64; x64) AppleWebKit/537.36 (KHTML, like Gecko) Chrome/109.0.0.0 Safari/537.36",WebKit,Chrome,109.0.0.0,Windows,10,614474abab1644252b136279,63e10c411fe3329c8004dfab,63e10f9b9d58b3b116bb4e99,614474abab1644252b136279,63e10c411fe3329c8004dfab,63e10f9b9d58b3b116bb4e99,63,,,Price of this smartphone contract: £ 631.92,50,631.92,69,180,,,,,,,,,
,3205,rating_trial,html-slider-response,74,359219,0.0-74.0,14,1,06/02/2023 14:33,ade4f6ea5f9a534a6de2afd25aaa37ca,90.202.132.131,"Mozilla/5.0 (Windows NT 10.0; Win64; x64) AppleWebKit/537.36 (KHTML, like Gecko) Chrome/109.0.0.0 Safari/537.36",WebKit,Chrome,109.0.0.0,Windows,10,614474abab1644252b136279,63e10c411fe3329c8004dfab,63e10f9b9d58b3b116bb4e99,614474abab1644252b136279,63e10c411fe3329c8004dfab,63e10f9b9d58b3b116bb4e99,68,,,Price of this smartphone contract: £ 646.08,50,646.08,70,180,,,,,,,,,
,4732,rating_trial,html-slider-response,75,363955,0.0-75.0,14,1,06/02/2023 14:33,ade4f6ea5f9a534a6de2afd25aaa37ca,90.202.132.131,"Mozilla/5.0 (Windows NT 10.0; Win64; x64) AppleWebKit/537.36 (KHTML, like Gecko) Chrome/109.0.0.0 Safari/537.36",WebKit,Chrome,109.0.0.0,Windows,10,614474abab1644252b136279,63e10c411fe3329c8004dfab,63e10f9b9d58b3b116bb4e99,614474abab1644252b136279,63e10c411fe3329c8004dfab,63e10f9b9d58b3b116bb4e99,35,,,Price of this smartphone contract: £ 798.99,50,798.99,71,180,,,,,,,,,
,2981,rating_trial,html-slider-response,76,366939,0.0-76.0,14,1,06/02/2023 14:33,ade4f6ea5f9a534a6de2afd25aaa37ca,90.202.132.131,"Mozilla/5.0 (Windows NT 10.0; Win64; x64) AppleWebKit/537.36 (KHTML, like Gecko) Chrome/109.0.0.0 Safari/537.36",WebKit,Chrome,109.0.0.0,Windows,10,614474abab1644252b136279,63e10c411fe3329c8004dfab,63e10f9b9d58b3b116bb4e99,614474abab1644252b136279,63e10c411fe3329c8004dfab,63e10f9b9d58b3b116bb4e99,0,,,Price of this smartphone contract: £ 1187.99,50,1187.99,72,180,,,,,,,,,
,3196,rating_trial,html-slider-response,77,370139,0.0-77.0,14,1,06/02/2023 14:33,ade4f6ea5f9a534a6de2afd25aaa37ca,90.202.132.131,"Mozilla/5.0 (Windows NT 10.0; Win64; x64) AppleWebKit/537.36 (KHTML, like Gecko) Chrome/109.0.0.0 Safari/537.36",WebKit,Chrome,109.0.0.0,Windows,10,614474abab1644252b136279,63e10c411fe3329c8004dfab,63e10f9b9d58b3b116bb4e99,614474abab1644252b136279,63e10c411fe3329c8004dfab,63e10f9b9d58b3b116bb4e99,16,,,Price of this smartphone contract: £ 918.99,50,918.99,73,180,,,,,,,,,
,5661,rating_trial,html-slider-response,78,375803,0.0-78.0,14,1,06/02/2023 14:33,ade4f6ea5f9a534a6de2afd25aaa37ca,90.202.132.131,"Mozilla/5.0 (Windows NT 10.0; Win64; x64) AppleWebKit/537.36 (KHTML, like Gecko) Chrome/109.0.0.0 Safari/537.36",WebKit,Chrome,109.0.0.0,Windows,10,614474abab1644252b136279,63e10c411fe3329c8004dfab,63e10f9b9d58b3b116bb4e99,614474abab1644252b136279,63e10c411fe3329c8004dfab,63e10f9b9d58b3b116bb4e99,84,,,Price of this smartphone contract: £ 552,50,552,74,180,,,,,,,,,
,2685,rating_trial,html-slider-response,79,378491,0.0-79.0,14,1,06/02/2023 14:33,ade4f6ea5f9a534a6de2afd25aaa37ca,90.202.132.131,"Mozilla/5.0 (Windows NT 10.0; Win64; x64) AppleWebKit/537.36 (KHTML, like Gecko) Chrome/109.0.0.0 Safari/537.36",WebKit,Chrome,109.0.0.0,Windows,10,614474abab1644252b136279,63e10c411fe3329c8004dfab,63e10f9b9d58b3b116bb4e99,614474abab1644252b136279,63e10c411fe3329c8004dfab,63e10f9b9d58b3b116bb4e99,0,,,Price of this smartphone contract: £ 1113.99,50,1113.99,75,180,,,,,,,,,
,2965,rating_trial,html-slider-response,80,381459,0.0-80.0,14,1,06/02/2023 14:33,ade4f6ea5f9a534a6de2afd25aaa37ca,90.202.132.131,"Mozilla/5.0 (Windows NT 10.0; Win64; x64) AppleWebKit/537.36 (KHTML, like Gecko) Chrome/109.0.0.0 Safari/537.36",WebKit,Chrome,109.0.0.0,Windows,10,614474abab1644252b136279,63e10c411fe3329c8004dfab,63e10f9b9d58b3b116bb4e99,614474abab1644252b136279,63e10c411fe3329c8004dfab,63e10f9b9d58b3b116bb4e99,0,,,Price of this smartphone contract: £ 1322,50,1322,76,180,,,,,,,,,
,2725,rating_trial,html-slider-response,81,384187,0.0-81.0,14,1,06/02/2023 14:33,ade4f6ea5f9a534a6de2afd25aaa37ca,90.202.132.131,"Mozilla/5.0 (Windows NT 10.0; Win64; x64) AppleWebKit/537.36 (KHTML, like Gecko) Chrome/109.0.0.0 Safari/537.36",WebKit,Chrome,109.0.0.0,Windows,10,614474abab1644252b136279,63e10c411fe3329c8004dfab,63e10f9b9d58b3b116bb4e99,614474abab1644252b136279,63e10c411fe3329c8004dfab,63e10f9b9d58b3b116bb4e99,0,,,Price of this smartphone contract: £ 1322,50,1322,77,180,,,,,,,,,
,3164,rating_trial,html-slider-response,82,387355,0.0-82.0,14,1,06/02/2023 14:33,ade4f6ea5f9a534a6de2afd25aaa37ca,90.202.132.131,"Mozilla/5.0 (Windows NT 10.0; Win64; x64) AppleWebKit/537.36 (KHTML, like Gecko) Chrome/109.0.0.0 Safari/537.36",WebKit,Chrome,109.0.0.0,Windows,10,614474abab1644252b136279,63e10c411fe3329c8004dfab,63e10f9b9d58b3b116bb4e99,614474abab1644252b136279,63e10c411fe3329c8004dfab,63e10f9b9d58b3b116bb4e99,38,,,Price of this smartphone contract: £ 779,50,779,78,180,,,,,,,,,
,3541,rating_trial,html-slider-response,83,390899,0.0-83.0,14,1,06/02/2023 14:33,ade4f6ea5f9a534a6de2afd25aaa37ca,90.202.132.131,"Mozilla/5.0 (Windows NT 10.0; Win64; x64) AppleWebKit/537.36 (KHTML, like Gecko) Chrome/109.0.0.0 Safari/537.36",WebKit,Chrome,109.0.0.0,Windows,10,614474abab1644252b136279,63e10c411fe3329c8004dfab,63e10f9b9d58b3b116bb4e99,614474abab1644252b136279,63e10c411fe3329c8004dfab,63e10f9b9d58b3b116bb4e99,0,,,Price of this smartphone contract: £ 1253.99,50,1253.99,79,180,,,,,,,,,
,3149,rating_trial,html-slider-response,84,394051,0.0-84.0,14,1,06/02/2023 14:33,ade4f6ea5f9a534a6de2afd25aaa37ca,90.202.132.131,"Mozilla/5.0 (Windows NT 10.0; Win64; x64) AppleWebKit/537.36 (KHTML, like Gecko) Chrome/109.0.0.0 Safari/537.36",WebKit,Chrome,109.0.0.0,Windows,10,614474abab1644252b136279,63e10c411fe3329c8004dfab,63e10f9b9d58b3b116bb4e99,614474abab1644252b136279,63e10c411fe3329c8004dfab,63e10f9b9d58b3b116bb4e99,0,,,Price of this smartphone contract: £ 1123,50,1123,80,180,,,,,,,,,
,2924,rating_trial,html-slider-response,85,396978,0.0-85.0,14,1,06/02/2023 14:33,ade4f6ea5f9a534a6de2afd25aaa37ca,90.202.132.131,"Mozilla/5.0 (Windows NT 10.0; Win64; x64) AppleWebKit/537.36 (KHTML, like Gecko) Chrome/109.0.0.0 Safari/537.36",WebKit,Chrome,109.0.0.0,Windows,10,614474abab1644252b136279,63e10c411fe3329c8004dfab,63e10f9b9d58b3b116bb4e99,614474abab1644252b136279,63e10c411fe3329c8004dfab,63e10f9b9d58b3b116bb4e99,0,,,Price of this smartphone contract: £ 1691.99,50,1691.99,81,180,,,,,,,,,
,2477,rating_trial,html-slider-response,86,399459,0.0-86.0,14,1,06/02/2023 14:33,ade4f6ea5f9a534a6de2afd25aaa37ca,90.202.132.131,"Mozilla/5.0 (Windows NT 10.0; Win64; x64) AppleWebKit/537.36 (KHTML, like Gecko) Chrome/109.0.0.0 Safari/537.36",WebKit,Chrome,109.0.0.0,Windows,10,614474abab1644252b136279,63e10c411fe3329c8004dfab,63e10f9b9d58b3b116bb4e99,614474abab1644252b136279,63e10c411fe3329c8004dfab,63e10f9b9d58b3b116bb4e99,35,,,Price of this smartphone contract: £ 720,50,720,82,180,,,,,,,,,
,3174,rating_trial,html-slider-response,87,402635,0.0-87.0,14,1,06/02/2023 14:33,ade4f6ea5f9a534a6de2afd25aaa37ca,90.202.132.131,"Mozilla/5.0 (Windows NT 10.0; Win64; x64) AppleWebKit/537.36 (KHTML, like Gecko) Chrome/109.0.0.0 Safari/537.36",WebKit,Chrome,109.0.0.0,Windows,10,614474abab1644252b136279,63e10c411fe3329c8004dfab,63e10f9b9d58b3b116bb4e99,614474abab1644252b136279,63e10c411fe3329c8004dfab,63e10f9b9d58b3b116bb4e99,28,,,Price of this smartphone contract: £ 869.99,50,869.99,83,180,,,,,,,,,
,10181,rating_trial,html-slider-response,88,412818,0.0-88.0,14,1,06/02/2023 14:33,ade4f6ea5f9a534a6de2afd25aaa37ca,90.202.132.131,"Mozilla/5.0 (Windows NT 10.0; Win64; x64) AppleWebKit/537.36 (KHTML, like Gecko) Chrome/109.0.0.0 Safari/537.36",WebKit,Chrome,109.0.0.0,Windows,10,614474abab1644252b136279,63e10c411fe3329c8004dfab,63e10f9b9d58b3b116bb4e99,614474abab1644252b136279,63e10c411fe3329c8004dfab,63e10f9b9d58b3b116bb4e99,98,,,Price of this smartphone contract: £ 383.76,50,383.76,84,180,,,,,,,,,
,2462,rating_trial,html-slider-response,89,415283,0.0-89.0,14,1,06/02/2023 14:33,ade4f6ea5f9a534a6de2afd25aaa37ca,90.202.132.131,"Mozilla/5.0 (Windows NT 10.0; Win64; x64) AppleWebKit/537.36 (KHTML, like Gecko) Chrome/109.0.0.0 Safari/537.36",WebKit,Chrome,109.0.0.0,Windows,10,614474abab1644252b136279,63e10c411fe3329c8004dfab,63e10f9b9d58b3b116bb4e99,614474abab1644252b136279,63e10c411fe3329c8004dfab,63e10f9b9d58b3b116bb4e99,0,,,Price of this smartphone contract: £ 1155,50,1155,85,180,,,,,,,,,
,2413,rating_trial,html-slider-response,90,417699,0.0-90.0,14,1,06/02/2023 14:33,ade4f6ea5f9a534a6de2afd25aaa37ca,90.202.132.131,"Mozilla/5.0 (Windows NT 10.0; Win64; x64) AppleWebKit/537.36 (KHTML, like Gecko) Chrome/109.0.0.0 Safari/537.36",WebKit,Chrome,109.0.0.0,Windows,10,614474abab1644252b136279,63e10c411fe3329c8004dfab,63e10f9b9d58b3b116bb4e99,614474abab1644252b136279,63e10c411fe3329c8004dfab,63e10f9b9d58b3b116bb4e99,0,,,Price of this smartphone contract: £ 1229.99,50,1229.99,86,180,,,,,,,,,
,3900,rating_trial,html-slider-response,91,421603,0.0-91.0,14,1,06/02/2023 14:33,ade4f6ea5f9a534a6de2afd25aaa37ca,90.202.132.131,"Mozilla/5.0 (Windows NT 10.0; Win64; x64) AppleWebKit/537.36 (KHTML, like Gecko) Chrome/109.0.0.0 Safari/537.36",WebKit,Chrome,109.0.0.0,Windows,10,614474abab1644252b136279,63e10c411fe3329c8004dfab,63e10f9b9d58b3b116bb4e99,614474abab1644252b136279,63e10c411fe3329c8004dfab,63e10f9b9d58b3b116bb4e99,76,,,Price of this smartphone contract: £ 571,50,571,87,180,,,,,,,,,
,3325,rating_trial,html-slider-response,92,424931,0.0-92.0,14,1,06/02/2023 14:33,ade4f6ea5f9a534a6de2afd25aaa37ca,90.202.132.131,"Mozilla/5.0 (Windows NT 10.0; Win64; x64) AppleWebKit/537.36 (KHTML, like Gecko) Chrome/109.0.0.0 Safari/537.36",WebKit,Chrome,109.0.0.0,Windows,10,614474abab1644252b136279,63e10c411fe3329c8004dfab,63e10f9b9d58b3b116bb4e99,614474abab1644252b136279,63e10c411fe3329c8004dfab,63e10f9b9d58b3b116bb4e99,14,,,Price of this smartphone contract: £ 915,50,915,88,180,,,,,,,,,
,2853,rating_trial,html-slider-response,93,427787,0.0-93.0,14,1,06/02/2023 14:33,ade4f6ea5f9a534a6de2afd25aaa37ca,90.202.132.131,"Mozilla/5.0 (Windows NT 10.0; Win64; x64) AppleWebKit/537.36 (KHTML, like Gecko) Chrome/109.0.0.0 Safari/537.36",WebKit,Chrome,109.0.0.0,Windows,10,614474abab1644252b136279,63e10c411fe3329c8004dfab,63e10f9b9d58b3b116bb4e99,614474abab1644252b136279,63e10c411fe3329c8004dfab,63e10f9b9d58b3b116bb4e99,34,,,Price of this smartphone contract: £ 715,50,715,89,180,,,,,,,,,
,4597,rating_trial,html-slider-response,94,432387,0.0-94.0,14,1,06/02/2023 14:33,ade4f6ea5f9a534a6de2afd25aaa37ca,90.202.132.131,"Mozilla/5.0 (Windows NT 10.0; Win64; x64) AppleWebKit/537.36 (KHTML, like Gecko) Chrome/109.0.0.0 Safari/537.36",WebKit,Chrome,109.0.0.0,Windows,10,614474abab1644252b136279,63e10c411fe3329c8004dfab,63e10f9b9d58b3b116bb4e99,614474abab1644252b136279,63e10c411fe3329c8004dfab,63e10f9b9d58b3b116bb4e99,66,,,Price of this smartphone contract: £ 576,50,576,90,180,,,,,,,,,
,2669,rating_trial,html-slider-response,95,435059,0.0-95.0,14,1,06/02/2023 14:33,ade4f6ea5f9a534a6de2afd25aaa37ca,90.202.132.131,"Mozilla/5.0 (Windows NT 10.0; Win64; x64) AppleWebKit/537.36 (KHTML, like Gecko) Chrome/109.0.0.0 Safari/537.36",WebKit,Chrome,109.0.0.0,Windows,10,614474abab1644252b136279,63e10c411fe3329c8004dfab,63e10f9b9d58b3b116bb4e99,614474abab1644252b136279,63e10c411fe3329c8004dfab,63e10f9b9d58b3b116bb4e99,0,,,Price of this smartphone contract: £ 1229.99,50,1229.99,91,180,,,,,,,,,
,2629,rating_trial,html-slider-response,96,437692,0.0-96.0,14,1,06/02/2023 14:33,ade4f6ea5f9a534a6de2afd25aaa37ca,90.202.132.131,"Mozilla/5.0 (Windows NT 10.0; Win64; x64) AppleWebKit/537.36 (KHTML, like Gecko) Chrome/109.0.0.0 Safari/537.36",WebKit,Chrome,109.0.0.0,Windows,10,614474abab1644252b136279,63e10c411fe3329c8004dfab,63e10f9b9d58b3b116bb4e99,614474abab1644252b136279,63e10c411fe3329c8004dfab,63e10f9b9d58b3b116bb4e99,0,,,Price of this smartphone contract: £ 1709,50,1709,92,180,,,,,,,,,
,3452,rating_trial,html-slider-response,97,441147,0.0-97.0,14,1,06/02/2023 14:33,ade4f6ea5f9a534a6de2afd25aaa37ca,90.202.132.131,"Mozilla/5.0 (Windows NT 10.0; Win64; x64) AppleWebKit/537.36 (KHTML, like Gecko) Chrome/109.0.0.0 Safari/537.36",WebKit,Chrome,109.0.0.0,Windows,10,614474abab1644252b136279,63e10c411fe3329c8004dfab,63e10f9b9d58b3b116bb4e99,614474abab1644252b136279,63e10c411fe3329c8004dfab,63e10f9b9d58b3b116bb4e99,7,,,Price of this smartphone contract: £ 917.99,50,917.99,93,180,,,,,,,,,
,5629,rating_trial,html-slider-response,98,446779,0.0-98.0,14,1,06/02/2023 14:33,ade4f6ea5f9a534a6de2afd25aaa37ca,90.202.132.131,"Mozilla/5.0 (Windows NT 10.0; Win64; x64) AppleWebKit/537.36 (KHTML, like Gecko) Chrome/109.0.0.0 Safari/537.36",WebKit,Chrome,109.0.0.0,Windows,10,614474abab1644252b136279,63e10c411fe3329c8004dfab,63e10f9b9d58b3b116bb4e99,614474abab1644252b136279,63e10c411fe3329c8004dfab,63e10f9b9d58b3b116bb4e99,78,,,Price of this smartphone contract: £ 528,50,528,94,180,,,,,,,,,
,4429,rating_trial,html-slider-response,99,451211,0.0-99.0,14,1,06/02/2023 14:33,ade4f6ea5f9a534a6de2afd25aaa37ca,90.202.132.131,"Mozilla/5.0 (Windows NT 10.0; Win64; x64) AppleWebKit/537.36 (KHTML, like Gecko) Chrome/109.0.0.0 Safari/537.36",WebKit,Chrome,109.0.0.0,Windows,10,614474abab1644252b136279,63e10c411fe3329c8004dfab,63e10f9b9d58b3b116bb4e99,614474abab1644252b136279,63e10c411fe3329c8004dfab,63e10f9b9d58b3b116bb4e99,25,,,Price of this smartphone contract: £ 839.75,50,839.75,95,180,,,,,,,,,
,3485,rating_trial,html-slider-response,100,454699,0.0-100.0,14,1,06/02/2023 14:33,ade4f6ea5f9a534a6de2afd25aaa37ca,90.202.132.131,"Mozilla/5.0 (Windows NT 10.0; Win64; x64) AppleWebKit/537.36 (KHTML, like Gecko) Chrome/109.0.0.0 Safari/537.36",WebKit,Chrome,109.0.0.0,Windows,10,614474abab1644252b136279,63e10c411fe3329c8004dfab,63e10f9b9d58b3b116bb4e99,614474abab1644252b136279,63e10c411fe3329c8004dfab,63e10f9b9d58b3b116bb4e99,37,,,Price of this smartphone contract: £ 769.75,50,769.75,96,180,,,,,,,,,
,2645,rating_trial,html-slider-response,101,457347,0.0-101.0,14,1,06/02/2023 14:33,ade4f6ea5f9a534a6de2afd25aaa37ca,90.202.132.131,"Mozilla/5.0 (Windows NT 10.0; Win64; x64) AppleWebKit/537.36 (KHTML, like Gecko) Chrome/109.0.0.0 Safari/537.36",WebKit,Chrome,109.0.0.0,Windows,10,614474abab1644252b136279,63e10c411fe3329c8004dfab,63e10f9b9d58b3b116bb4e99,614474abab1644252b136279,63e10c411fe3329c8004dfab,63e10f9b9d58b3b116bb4e99,0,,,Price of this smartphone contract: £ 1123,50,1123,97,180,,,,,,,,,
,3324,rating_trial,html-slider-response,102,460675,0.0-102.0,14,1,06/02/2023 14:33,ade4f6ea5f9a534a6de2afd25aaa37ca,90.202.132.131,"Mozilla/5.0 (Windows NT 10.0; Win64; x64) AppleWebKit/537.36 (KHTML, like Gecko) Chrome/109.0.0.0 Safari/537.36",WebKit,Chrome,109.0.0.0,Windows,10,614474abab1644252b136279,63e10c411fe3329c8004dfab,63e10f9b9d58b3b116bb4e99,614474abab1644252b136279,63e10c411fe3329c8004dfab,63e10f9b9d58b3b116bb4e99,28,,,Price of this smartphone contract: £ 875.99,50,875.99,98,180,,,,,,,,,
,2461,rating_trial,html-slider-response,103,463139,0.0-103.0,14,1,06/02/2023 14:33,ade4f6ea5f9a534a6de2afd25aaa37ca,90.202.132.131,"Mozilla/5.0 (Windows NT 10.0; Win64; x64) AppleWebKit/537.36 (KHTML, like Gecko) Chrome/109.0.0.0 Safari/537.36",WebKit,Chrome,109.0.0.0,Windows,10,614474abab1644252b136279,63e10c411fe3329c8004dfab,63e10f9b9d58b3b116bb4e99,614474abab1644252b136279,63e10c411fe3329c8004dfab,63e10f9b9d58b3b116bb4e99,32,,,Price of this smartphone contract: £ 723,50,723,99,180,,,,,,,,,
,2533,rating_trial,html-slider-response,104,465675,0.0-104.0,14,1,06/02/2023 14:33,ade4f6ea5f9a534a6de2afd25aaa37ca,90.202.132.131,"Mozilla/5.0 (Windows NT 10.0; Win64; x64) AppleWebKit/537.36 (KHTML, like Gecko) Chrome/109.0.0.0 Safari/537.36",WebKit,Chrome,109.0.0.0,Windows,10,614474abab1644252b136279,63e10c411fe3329c8004dfab,63e10f9b9d58b3b116bb4e99,614474abab1644252b136279,63e10c411fe3329c8004dfab,63e10f9b9d58b3b116bb4e99,30,,,Price of this smartphone contract: £ 835,50,835,100,180,,,,,,,,,
,2725,rating_trial,html-slider-response,105,468403,0.0-105.0,14,1,06/02/2023 14:33,ade4f6ea5f9a534a6de2afd25aaa37ca,90.202.132.131,"Mozilla/5.0 (Windows NT 10.0; Win64; x64) AppleWebKit/537.36 (KHTML, like Gecko) Chrome/109.0.0.0 Safari/537.36",WebKit,Chrome,109.0.0.0,Windows,10,614474abab1644252b136279,63e10c411fe3329c8004dfab,63e10f9b9d58b3b116bb4e99,614474abab1644252b136279,63e10c411fe3329c8004dfab,63e10f9b9d58b3b116bb4e99,0,,,Price of this smartphone contract: £ 1152,50,1152,101,180,,,,,,,,,
,2613,rating_trial,html-slider-response,106,471019,0.0-106.0,14,1,06/02/2023 14:33,ade4f6ea5f9a534a6de2afd25aaa37ca,90.202.132.131,"Mozilla/5.0 (Windows NT 10.0; Win64; x64) AppleWebKit/537.36 (KHTML, like Gecko) Chrome/109.0.0.0 Safari/537.36",WebKit,Chrome,109.0.0.0,Windows,10,614474abab1644252b136279,63e10c411fe3329c8004dfab,63e10f9b9d58b3b116bb4e99,614474abab1644252b136279,63e10c411fe3329c8004dfab,63e10f9b9d58b3b116bb4e99,0,,,Price of this smartphone contract: £ 1115.99,50,1115.99,102,180,,,,,,,,,
,3324,rating_trial,html-slider-response,107,474347,0.0-107.0,14,1,06/02/2023 14:33,ade4f6ea5f9a534a6de2afd25aaa37ca,90.202.132.131,"Mozilla/5.0 (Windows NT 10.0; Win64; x64) AppleWebKit/537.36 (KHTML, like Gecko) Chrome/109.0.0.0 Safari/537.36",WebKit,Chrome,109.0.0.0,Windows,10,614474abab1644252b136279,63e10c411fe3329c8004dfab,63e10f9b9d58b3b116bb4e99,614474abab1644252b136279,63e10c411fe3329c8004dfab,63e10f9b9d58b3b116bb4e99,13,,,Price of this smartphone contract: £ 909.99,50,909.99,103,180,,,,,,,,,
,3325,rating_trial,html-slider-response,108,477675,0.0-108.0,14,1,06/02/2023 14:33,ade4f6ea5f9a534a6de2afd25aaa37ca,90.202.132.131,"Mozilla/5.0 (Windows NT 10.0; Win64; x64) AppleWebKit/537.36 (KHTML, like Gecko) Chrome/109.0.0.0 Safari/537.36",WebKit,Chrome,109.0.0.0,Windows,10,614474abab1644252b136279,63e10c411fe3329c8004dfab,63e10f9b9d58b3b116bb4e99,614474abab1644252b136279,63e10c411fe3329c8004dfab,63e10f9b9d58b3b116bb4e99,31,,,Price of this smartphone contract: £ 720,50,720,104,180,,,,,,,,,
,3317,rating_trial,html-slider-response,109,480995,0.0-109.0,14,1,06/02/2023 14:33,ade4f6ea5f9a534a6de2afd25aaa37ca,90.202.132.131,"Mozilla/5.0 (Windows NT 10.0; Win64; x64) AppleWebKit/537.36 (KHTML, like Gecko) Chrome/109.0.0.0 Safari/537.36",WebKit,Chrome,109.0.0.0,Windows,10,614474abab1644252b136279,63e10c411fe3329c8004dfab,63e10f9b9d58b3b116bb4e99,614474abab1644252b136279,63e10c411fe3329c8004dfab,63e10f9b9d58b3b116bb4e99,45,,,Price of this smartphone contract: £ 600,50,600,105,180,,,,,,,,,
,3509,rating_trial,html-slider-response,110,484507,0.0-110.0,14,1,06/02/2023 14:33,ade4f6ea5f9a534a6de2afd25aaa37ca,90.202.132.131,"Mozilla/5.0 (Windows NT 10.0; Win64; x64) AppleWebKit/537.36 (KHTML, like Gecko) Chrome/109.0.0.0 Safari/537.36",WebKit,Chrome,109.0.0.0,Windows,10,614474abab1644252b136279,63e10c411fe3329c8004dfab,63e10f9b9d58b3b116bb4e99,614474abab1644252b136279,63e10c411fe3329c8004dfab,63e10f9b9d58b3b116bb4e99,47,,,Price of this smartphone contract: £ 631.99,50,631.99,106,180,,,,,,,,,
,2645,rating_trial,html-slider-response,111,487154,0.0-111.0,14,1,06/02/2023 14:33,ade4f6ea5f9a534a6de2afd25aaa37ca,90.202.132.131,"Mozilla/5.0 (Windows NT 10.0; Win64; x64) AppleWebKit/537.36 (KHTML, like Gecko) Chrome/109.0.0.0 Safari/537.36",WebKit,Chrome,109.0.0.0,Windows,10,614474abab1644252b136279,63e10c411fe3329c8004dfab,63e10f9b9d58b3b116bb4e99,614474abab1644252b136279,63e10c411fe3329c8004dfab,63e10f9b9d58b3b116bb4e99,37,,,Price of this smartphone contract: £ 749.99,50,749.99,107,180,,,,,,,,,
,2916,rating_trial,html-slider-response,112,490075,0.0-112.0,14,1,06/02/2023 14:33,ade4f6ea5f9a534a6de2afd25aaa37ca,90.202.132.131,"Mozilla/5.0 (Windows NT 10.0; Win64; x64) AppleWebKit/537.36 (KHTML, like Gecko) Chrome/109.0.0.0 Safari/537.36",WebKit,Chrome,109.0.0.0,Windows,10,614474abab1644252b136279,63e10c411fe3329c8004dfab,63e10f9b9d58b3b116bb4e99,614474abab1644252b136279,63e10c411fe3329c8004dfab,63e10f9b9d58b3b116bb4e99,30,,,Price of this smartphone contract: £ 801.99,50,801.99,108,180,,,,,,,,,
,3660,rating_trial,html-slider-response,113,493739,0.0-113.0,14,1,06/02/2023 14:33,ade4f6ea5f9a534a6de2afd25aaa37ca,90.202.132.131,"Mozilla/5.0 (Windows NT 10.0; Win64; x64) AppleWebKit/537.36 (KHTML, like Gecko) Chrome/109.0.0.0 Safari/537.36",WebKit,Chrome,109.0.0.0,Windows,10,614474abab1644252b136279,63e10c411fe3329c8004dfab,63e10f9b9d58b3b116bb4e99,614474abab1644252b136279,63e10c411fe3329c8004dfab,63e10f9b9d58b3b116bb4e99,44,,,Price of this smartphone contract: £ 624,50,624,109,180,,,,,,,,,
,2836,rating_trial,html-slider-response,114,496579,0.0-114.0,14,1,06/02/2023 14:33,ade4f6ea5f9a534a6de2afd25aaa37ca,90.202.132.131,"Mozilla/5.0 (Windows NT 10.0; Win64; x64) AppleWebKit/537.36 (KHTML, like Gecko) Chrome/109.0.0.0 Safari/537.36",WebKit,Chrome,109.0.0.0,Windows,10,614474abab1644252b136279,63e10c411fe3329c8004dfab,63e10f9b9d58b3b116bb4e99,614474abab1644252b136279,63e10c411fe3329c8004dfab,63e10f9b9d58b3b116bb4e99,86,,,Price of this smartphone contract: £ 432,50,432,110,180,,,,,,,,,
,3188,rating_trial,html-slider-response,115,499771,0.0-115.0,14,1,06/02/2023 14:33,ade4f6ea5f9a534a6de2afd25aaa37ca,90.202.132.131,"Mozilla/5.0 (Windows NT 10.0; Win64; x64) AppleWebKit/537.36 (KHTML, like Gecko) Chrome/109.0.0.0 Safari/537.36",WebKit,Chrome,109.0.0.0,Windows,10,614474abab1644252b136279,63e10c411fe3329c8004dfab,63e10f9b9d58b3b116bb4e99,614474abab1644252b136279,63e10c411fe3329c8004dfab,63e10f9b9d58b3b116bb4e99,100,,,Price of this smartphone contract: £ 359.76,50,359.76,111,180,,,,,,,,,
,4228,rating_trial,html-slider-response,116,504002,0.0-116.0,14,1,06/02/2023 14:33,ade4f6ea5f9a534a6de2afd25aaa37ca,90.202.132.131,"Mozilla/5.0 (Windows NT 10.0; Win64; x64) AppleWebKit/537.36 (KHTML, like Gecko) Chrome/109.0.0.0 Safari/537.36",WebKit,Chrome,109.0.0.0,Windows,10,614474abab1644252b136279,63e10c411fe3329c8004dfab,63e10f9b9d58b3b116bb4e99,614474abab1644252b136279,63e10c411fe3329c8004dfab,63e10f9b9d58b3b116bb4e99,61,,,Price of this smartphone contract: £ 590.99,50,590.99,112,180,,,,,,,,,
,2757,rating_trial,html-slider-response,117,506762,0.0-117.0,14,1,06/02/2023 14:33,ade4f6ea5f9a534a6de2afd25aaa37ca,90.202.132.131,"Mozilla/5.0 (Windows NT 10.0; Win64; x64) AppleWebKit/537.36 (KHTML, like Gecko) Chrome/109.0.0.0 Safari/537.36",WebKit,Chrome,109.0.0.0,Windows,10,614474abab1644252b136279,63e10c411fe3329c8004dfab,63e10f9b9d58b3b116bb4e99,614474abab1644252b136279,63e10c411fe3329c8004dfab,63e10f9b9d58b3b116bb4e99,15,,,Price of this smartphone contract: £ 935,50,935,113,180,,,,,,,,,
,2780,rating_trial,html-slider-response,118,509546,0.0-118.0,14,1,06/02/2023 14:33,ade4f6ea5f9a534a6de2afd25aaa37ca,90.202.132.131,"Mozilla/5.0 (Windows NT 10.0; Win64; x64) AppleWebKit/537.36 (KHTML, like Gecko) Chrome/109.0.0.0 Safari/537.36",WebKit,Chrome,109.0.0.0,Windows,10,614474abab1644252b136279,63e10c411fe3329c8004dfab,63e10f9b9d58b3b116bb4e99,614474abab1644252b136279,63e10c411fe3329c8004dfab,63e10f9b9d58b3b116bb4e99,0,,,Price of this smartphone contract: £ 1709,50,1709,114,180,,,,,,,,,
,3004,rating_trial,html-slider-response,119,512555,0.0-119.0,14,1,06/02/2023 14:33,ade4f6ea5f9a534a6de2afd25aaa37ca,90.202.132.131,"Mozilla/5.0 (Windows NT 10.0; Win64; x64) AppleWebKit/537.36 (KHTML, like Gecko) Chrome/109.0.0.0 Safari/537.36",WebKit,Chrome,109.0.0.0,Windows,10,614474abab1644252b136279,63e10c411fe3329c8004dfab,63e10f9b9d58b3b116bb4e99,614474abab1644252b136279,63e10c411fe3329c8004dfab,63e10f9b9d58b3b116bb4e99,36,,,Price of this smartphone contract: £ 735.99,50,735.99,115,180,,,,,,,,,
,2764,rating_trial,html-slider-response,120,515323,0.0-120.0,14,1,06/02/2023 14:33,ade4f6ea5f9a534a6de2afd25aaa37ca,90.202.132.131,"Mozilla/5.0 (Windows NT 10.0; Win64; x64) AppleWebKit/537.36 (KHTML, like Gecko) Chrome/109.0.0.0 Safari/537.36",WebKit,Chrome,109.0.0.0,Windows,10,614474abab1644252b136279,63e10c411fe3329c8004dfab,63e10f9b9d58b3b116bb4e99,614474abab1644252b136279,63e10c411fe3329c8004dfab,63e10f9b9d58b3b116bb4e99,42,,,Price of this smartphone contract: £ 667,50,667,116,180,,,,,,,,,
,3292,rating_trial,html-slider-response,121,518618,0.0-121.0,14,1,06/02/2023 14:33,ade4f6ea5f9a534a6de2afd25aaa37ca,90.202.132.131,"Mozilla/5.0 (Windows NT 10.0; Win64; x64) AppleWebKit/537.36 (KHTML, like Gecko) Chrome/109.0.0.0 Safari/537.36",WebKit,Chrome,109.0.0.0,Windows,10,614474abab1644252b136279,63e10c411fe3329c8004dfab,63e10f9b9d58b3b116bb4e99,614474abab1644252b136279,63e10c411fe3329c8004dfab,63e10f9b9d58b3b116bb4e99,6,,,Price of this smartphone contract: £ 945.99,50,945.99,117,180,,,,,,,,,
,2692,rating_trial,html-slider-response,122,521315,0.0-122.0,14,1,06/02/2023 14:33,ade4f6ea5f9a534a6de2afd25aaa37ca,90.202.132.131,"Mozilla/5.0 (Windows NT 10.0; Win64; x64) AppleWebKit/537.36 (KHTML, like Gecko) Chrome/109.0.0.0 Safari/537.36",WebKit,Chrome,109.0.0.0,Windows,10,614474abab1644252b136279,63e10c411fe3329c8004dfab,63e10f9b9d58b3b116bb4e99,614474abab1644252b136279,63e10c411fe3329c8004dfab,63e10f9b9d58b3b116bb4e99,28,,,Price of this smartphone contract: £ 792,50,792,118,180,,,,,,,,,
,2620,rating_trial,html-slider-response,123,523939,0.0-123.0,14,1,06/02/2023 14:33,ade4f6ea5f9a534a6de2afd25aaa37ca,90.202.132.131,"Mozilla/5.0 (Windows NT 10.0; Win64; x64) AppleWebKit/537.36 (KHTML, like Gecko) Chrome/109.0.0.0 Safari/537.36",WebKit,Chrome,109.0.0.0,Windows,10,614474abab1644252b136279,63e10c411fe3329c8004dfab,63e10f9b9d58b3b116bb4e99,614474abab1644252b136279,63e10c411fe3329c8004dfab,63e10f9b9d58b3b116bb4e99,32,,,Price of this smartphone contract: £ 745.75,50,745.75,119,180,,,,,,,,,
,3372,rating_trial,html-slider-response,124,527315,0.0-124.0,14,1,06/02/2023 14:33,ade4f6ea5f9a534a6de2afd25aaa37ca,90.202.132.131,"Mozilla/5.0 (Windows NT 10.0; Win64; x64) AppleWebKit/537.36 (KHTML, like Gecko) Chrome/109.0.0.0 Safari/537.36",WebKit,Chrome,109.0.0.0,Windows,10,614474abab1644252b136279,63e10c411fe3329c8004dfab,63e10f9b9d58b3b116bb4e99,614474abab1644252b136279,63e10c411fe3329c8004dfab,63e10f9b9d58b3b116bb4e99,32,,,Price of this smartphone contract: £ 795,50,795,120,180,,,,,,,,,
,3068,rating_trial,html-slider-response,125,530387,0.0-125.0,14,1,06/02/2023 14:33,ade4f6ea5f9a534a6de2afd25aaa37ca,90.202.132.131,"Mozilla/5.0 (Windows NT 10.0; Win64; x64) AppleWebKit/537.36 (KHTML, like Gecko) Chrome/109.0.0.0 Safari/537.36",WebKit,Chrome,109.0.0.0,Windows,10,614474abab1644252b136279,63e10c411fe3329c8004dfab,63e10f9b9d58b3b116bb4e99,614474abab1644252b136279,63e10c411fe3329c8004dfab,63e10f9b9d58b3b116bb4e99,25,,,Price of this smartphone contract: £ 835,50,835,121,180,,,,,,,,,
,2980,rating_trial,html-slider-response,126,533371,0.0-126.0,14,1,06/02/2023 14:33,ade4f6ea5f9a534a6de2afd25aaa37ca,90.202.132.131,"Mozilla/5.0 (Windows NT 10.0; Win64; x64) AppleWebKit/537.36 (KHTML, like Gecko) Chrome/109.0.0.0 Safari/537.36",WebKit,Chrome,109.0.0.0,Windows,10,614474abab1644252b136279,63e10c411fe3329c8004dfab,63e10f9b9d58b3b116bb4e99,614474abab1644252b136279,63e10c411fe3329c8004dfab,63e10f9b9d58b3b116bb4e99,30,,,Price of this smartphone contract: £ 795.99,50,795.99,122,180,,,,,,,,,
,2404,rating_trial,html-slider-response,127,535779,0.0-127.0,14,1,06/02/2023 14:33,ade4f6ea5f9a534a6de2afd25aaa37ca,90.202.132.131,"Mozilla/5.0 (Windows NT 10.0; Win64; x64) AppleWebKit/537.36 (KHTML, like Gecko) Chrome/109.0.0.0 Safari/537.36",WebKit,Chrome,109.0.0.0,Windows,10,614474abab1644252b136279,63e10c411fe3329c8004dfab,63e10f9b9d58b3b116bb4e99,614474abab1644252b136279,63e10c411fe3329c8004dfab,63e10f9b9d58b3b116bb4e99,32,,,Price of this smartphone contract: £ 749.99,50,749.99,123,180,,,,,,,,,
,2764,rating_trial,html-slider-response,128,538546,0.0-128.0,14,1,06/02/2023 14:33,ade4f6ea5f9a534a6de2afd25aaa37ca,90.202.132.131,"Mozilla/5.0 (Windows NT 10.0; Win64; x64) AppleWebKit/537.36 (KHTML, like Gecko) Chrome/109.0.0.0 Safari/537.36",WebKit,Chrome,109.0.0.0,Windows,10,614474abab1644252b136279,63e10c411fe3329c8004dfab,63e10f9b9d58b3b116bb4e99,614474abab1644252b136279,63e10c411fe3329c8004dfab,63e10f9b9d58b3b116bb4e99,0,,,Price of this smartphone contract: £ 1139.99,50,1139.99,124,180,,,,,,,,,
,3012,rating_trial,html-slider-response,129,541562,0.0-129.0,14,1,06/02/2023 14:33,ade4f6ea5f9a534a6de2afd25aaa37ca,90.202.132.131,"Mozilla/5.0 (Windows NT 10.0; Win64; x64) AppleWebKit/537.36 (KHTML, like Gecko) Chrome/109.0.0.0 Safari/537.36",WebKit,Chrome,109.0.0.0,Windows,10,614474abab1644252b136279,63e10c411fe3329c8004dfab,63e10f9b9d58b3b116bb4e99,614474abab1644252b136279,63e10c411fe3329c8004dfab,63e10f9b9d58b3b116bb4e99,0,,,Price of this smartphone contract: £ 1133.99,50,1133.99,125,180,,,,,,,,,
,3765,rating_trial,html-slider-response,130,545331,0.0-130.0,14,1,06/02/2023 14:33,ade4f6ea5f9a534a6de2afd25aaa37ca,90.202.132.131,"Mozilla/5.0 (Windows NT 10.0; Win64; x64) AppleWebKit/537.36 (KHTML, like Gecko) Chrome/109.0.0.0 Safari/537.36",WebKit,Chrome,109.0.0.0,Windows,10,614474abab1644252b136279,63e10c411fe3329c8004dfab,63e10f9b9d58b3b116bb4e99,614474abab1644252b136279,63e10c411fe3329c8004dfab,63e10f9b9d58b3b116bb4e99,55,,,Price of this smartphone contract: £ 695.76,50,695.76,126,180,,,,,,,,,
,3228,rating_trial,html-slider-response,131,548563,0.0-131.0,14,1,06/02/2023 14:33,ade4f6ea5f9a534a6de2afd25aaa37ca,90.202.132.131,"Mozilla/5.0 (Windows NT 10.0; Win64; x64) AppleWebKit/537.36 (KHTML, like Gecko) Chrome/109.0.0.0 Safari/537.36",WebKit,Chrome,109.0.0.0,Windows,10,614474abab1644252b136279,63e10c411fe3329c8004dfab,63e10f9b9d58b3b116bb4e99,614474abab1644252b136279,63e10c411fe3329c8004dfab,63e10f9b9d58b3b116bb4e99,36,,,Price of this smartphone contract: £ 799.99,50,799.99,127,180,,,,,,,,,
,2756,rating_trial,html-slider-response,132,551323,0.0-132.0,14,1,06/02/2023 14:33,ade4f6ea5f9a534a6de2afd25aaa37ca,90.202.132.131,"Mozilla/5.0 (Windows NT 10.0; Win64; x64) AppleWebKit/537.36 (KHTML, like Gecko) Chrome/109.0.0.0 Safari/537.36",WebKit,Chrome,109.0.0.0,Windows,10,614474abab1644252b136279,63e10c411fe3329c8004dfab,63e10f9b9d58b3b116bb4e99,614474abab1644252b136279,63e10c411fe3329c8004dfab,63e10f9b9d58b3b116bb4e99,0,,,Price of this smartphone contract: £ 1201.99,50,1201.99,128,180,,,,,,,,,
,2972,rating_trial,html-slider-response,133,554299,0.0-133.0,14,1,06/02/2023 14:33,ade4f6ea5f9a534a6de2afd25aaa37ca,90.202.132.131,"Mozilla/5.0 (Windows NT 10.0; Win64; x64) AppleWebKit/537.36 (KHTML, like Gecko) Chrome/109.0.0.0 Safari/537.36",WebKit,Chrome,109.0.0.0,Windows,10,614474abab1644252b136279,63e10c411fe3329c8004dfab,63e10f9b9d58b3b116bb4e99,614474abab1644252b136279,63e10c411fe3329c8004dfab,63e10f9b9d58b3b116bb4e99,0,,,Price of this smartphone contract: £ 1225,50,1225,129,180,,,,,,,,,
,2411,rating_trial,html-slider-response,134,556715,0.0-134.0,14,1,06/02/2023 14:33,ade4f6ea5f9a534a6de2afd25aaa37ca,90.202.132.131,"Mozilla/5.0 (Windows NT 10.0; Win64; x64) AppleWebKit/537.36 (KHTML, like Gecko) Chrome/109.0.0.0 Safari/537.36",WebKit,Chrome,109.0.0.0,Windows,10,614474abab1644252b136279,63e10c411fe3329c8004dfab,63e10f9b9d58b3b116bb4e99,614474abab1644252b136279,63e10c411fe3329c8004dfab,63e10f9b9d58b3b116bb4e99,39,,,Price of this smartphone contract: £ 787,50,787,130,180,,,,,,,,,
,2596,rating_trial,html-slider-response,135,559315,0.0-135.0,14,1,06/02/2023 14:33,ade4f6ea5f9a534a6de2afd25aaa37ca,90.202.132.131,"Mozilla/5.0 (Windows NT 10.0; Win64; x64) AppleWebKit/537.36 (KHTML, like Gecko) Chrome/109.0.0.0 Safari/537.36",WebKit,Chrome,109.0.0.0,Windows,10,614474abab1644252b136279,63e10c411fe3329c8004dfab,63e10f9b9d58b3b116bb4e99,614474abab1644252b136279,63e10c411fe3329c8004dfab,63e10f9b9d58b3b116bb4e99,6,,,Price of this smartphone contract: £ 941.99,50,941.99,131,180,,,,,,,,,
,2403,rating_trial,html-slider-response,136,561723,0.0-136.0,14,1,06/02/2023 14:33,ade4f6ea5f9a534a6de2afd25aaa37ca,90.202.132.131,"Mozilla/5.0 (Windows NT 10.0; Win64; x64) AppleWebKit/537.36 (KHTML, like Gecko) Chrome/109.0.0.0 Safari/537.36",WebKit,Chrome,109.0.0.0,Windows,10,614474abab1644252b136279,63e10c411fe3329c8004dfab,63e10f9b9d58b3b116bb4e99,614474abab1644252b136279,63e10c411fe3329c8004dfab,63e10f9b9d58b3b116bb4e99,35,,,Price of this smartphone contract: £ 795.99,50,795.99,132,180,,,,,,,,,
,2324,rating_trial,html-slider-response,137,564051,0.0-137.0,14,1,06/02/2023 14:33,ade4f6ea5f9a534a6de2afd25aaa37ca,90.202.132.131,"Mozilla/5.0 (Windows NT 10.0; Win64; x64) AppleWebKit/537.36 (KHTML, like Gecko) Chrome/109.0.0.0 Safari/537.36",WebKit,Chrome,109.0.0.0,Windows,10,614474abab1644252b136279,63e10c411fe3329c8004dfab,63e10f9b9d58b3b116bb4e99,614474abab1644252b136279,63e10c411fe3329c8004dfab,63e10f9b9d58b3b116bb4e99,0,,,Price of this smartphone contract: £ 1225,50,1225,133,180,,,,,,,,,
,2587,rating_trial,html-slider-response,138,566643,0.0-138.0,14,1,06/02/2023 14:33,ade4f6ea5f9a534a6de2afd25aaa37ca,90.202.132.131,"Mozilla/5.0 (Windows NT 10.0; Win64; x64) AppleWebKit/537.36 (KHTML, like Gecko) Chrome/109.0.0.0 Safari/537.36",WebKit,Chrome,109.0.0.0,Windows,10,614474abab1644252b136279,63e10c411fe3329c8004dfab,63e10f9b9d58b3b116bb4e99,614474abab1644252b136279,63e10c411fe3329c8004dfab,63e10f9b9d58b3b116bb4e99,0,,,Price of this smartphone contract: £ 1115.99,50,1115.99,134,180,,,,,,,,,
,2884,rating_trial,html-slider-response,139,569531,0.0-139.0,14,1,06/02/2023 14:33,ade4f6ea5f9a534a6de2afd25aaa37ca,90.202.132.131,"Mozilla/5.0 (Windows NT 10.0; Win64; x64) AppleWebKit/537.36 (KHTML, like Gecko) Chrome/109.0.0.0 Safari/537.36",WebKit,Chrome,109.0.0.0,Windows,10,614474abab1644252b136279,63e10c411fe3329c8004dfab,63e10f9b9d58b3b116bb4e99,614474abab1644252b136279,63e10c411fe3329c8004dfab,63e10f9b9d58b3b116bb4e99,100,,,Price of this smartphone contract: £ 359.76,50,359.76,135,180,,,,,,,,,
,2795,rating_trial,html-slider-response,140,572331,0.0-140.0,14,1,06/02/2023 14:33,ade4f6ea5f9a534a6de2afd25aaa37ca,90.202.132.131,"Mozilla/5.0 (Windows NT 10.0; Win64; x64) AppleWebKit/537.36 (KHTML, like Gecko) Chrome/109.0.0.0 Safari/537.36",WebKit,Chrome,109.0.0.0,Windows,10,614474abab1644252b136279,63e10c411fe3329c8004dfab,63e10f9b9d58b3b116bb4e99,614474abab1644252b136279,63e10c411fe3329c8004dfab,63e10f9b9d58b3b116bb4e99,0,,,Price of this smartphone contract: £ 1250,50,1250,136,180,,,,,,,,,
,2635,rating_trial,html-slider-response,141,574970,0.0-141.0,14,1,06/02/2023 14:33,ade4f6ea5f9a534a6de2afd25aaa37ca,90.202.132.131,"Mozilla/5.0 (Windows NT 10.0; Win64; x64) AppleWebKit/537.36 (KHTML, like Gecko) Chrome/109.0.0.0 Safari/537.36",WebKit,Chrome,109.0.0.0,Windows,10,614474abab1644252b136279,63e10c411fe3329c8004dfab,63e10f9b9d58b3b116bb4e99,614474abab1644252b136279,63e10c411fe3329c8004dfab,63e10f9b9d58b3b116bb4e99,0,,,Price of this smartphone contract: £ 1345,50,1345,137,180,,,,,,,,,
,3188,rating_trial,html-slider-response,142,578163,0.0-142.0,14,1,06/02/2023 14:33,ade4f6ea5f9a534a6de2afd25aaa37ca,90.202.132.131,"Mozilla/5.0 (Windows NT 10.0; Win64; x64) AppleWebKit/537.36 (KHTML, like Gecko) Chrome/109.0.0.0 Safari/537.36",WebKit,Chrome,109.0.0.0,Windows,10,614474abab1644252b136279,63e10c411fe3329c8004dfab,63e10f9b9d58b3b116bb4e99,614474abab1644252b136279,63e10c411fe3329c8004dfab,63e10f9b9d58b3b116bb4e99,12,,,Price of this smartphone contract: £ 887.99,50,887.99,138,180,,,,,,,,,
,3147,rating_trial,html-slider-response,143,581315,0.0-143.0,14,1,06/02/2023 14:33,ade4f6ea5f9a534a6de2afd25aaa37ca,90.202.132.131,"Mozilla/5.0 (Windows NT 10.0; Win64; x64) AppleWebKit/537.36 (KHTML, like Gecko) Chrome/109.0.0.0 Safari/537.36",WebKit,Chrome,109.0.0.0,Windows,10,614474abab1644252b136279,63e10c411fe3329c8004dfab,63e10f9b9d58b3b116bb4e99,614474abab1644252b136279,63e10c411fe3329c8004dfab,63e10f9b9d58b3b116bb4e99,0,,,Price of this smartphone contract: £ 1008,50,1008,139,180,,,,,,,,,
,3140,rating_trial,html-slider-response,144,584459,0.0-144.0,14,1,06/02/2023 14:33,ade4f6ea5f9a534a6de2afd25aaa37ca,90.202.132.131,"Mozilla/5.0 (Windows NT 10.0; Win64; x64) AppleWebKit/537.36 (KHTML, like Gecko) Chrome/109.0.0.0 Safari/537.36",WebKit,Chrome,109.0.0.0,Windows,10,614474abab1644252b136279,63e10c411fe3329c8004dfab,63e10f9b9d58b3b116bb4e99,614474abab1644252b136279,63e10c411fe3329c8004dfab,63e10f9b9d58b3b116bb4e99,22,,,Price of this smartphone contract: £ 811,50,811,140,180,,,,,,,,,
,4788,rating_trial,html-slider-response,145,589251,0.0-145.0,14,1,06/02/2023 14:33,ade4f6ea5f9a534a6de2afd25aaa37ca,90.202.132.131,"Mozilla/5.0 (Windows NT 10.0; Win64; x64) AppleWebKit/537.36 (KHTML, like Gecko) Chrome/109.0.0.0 Safari/537.36",WebKit,Chrome,109.0.0.0,Windows,10,614474abab1644252b136279,63e10c411fe3329c8004dfab,63e10f9b9d58b3b116bb4e99,614474abab1644252b136279,63e10c411fe3329c8004dfab,63e10f9b9d58b3b116bb4e99,0,,,Price of this smartphone contract: £ 1061.99,50,1061.99,141,180,,,,,,,,,
,2507,rating_trial,html-slider-response,146,591763,0.0-146.0,14,1,06/02/2023 14:33,ade4f6ea5f9a534a6de2afd25aaa37ca,90.202.132.131,"Mozilla/5.0 (Windows NT 10.0; Win64; x64) AppleWebKit/537.36 (KHTML, like Gecko) Chrome/109.0.0.0 Safari/537.36",WebKit,Chrome,109.0.0.0,Windows,10,614474abab1644252b136279,63e10c411fe3329c8004dfab,63e10f9b9d58b3b116bb4e99,614474abab1644252b136279,63e10c411fe3329c8004dfab,63e10f9b9d58b3b116bb4e99,40,,,Price of this smartphone contract: £ 725.99,50,725.99,142,180,,,,,,,,,
,4723,rating_trial,html-slider-response,147,596491,0.0-147.0,14,1,06/02/2023 14:33,ade4f6ea5f9a534a6de2afd25aaa37ca,90.202.132.131,"Mozilla/5.0 (Windows NT 10.0; Win64; x64) AppleWebKit/537.36 (KHTML, like Gecko) Chrome/109.0.0.0 Safari/537.36",WebKit,Chrome,109.0.0.0,Windows,10,614474abab1644252b136279,63e10c411fe3329c8004dfab,63e10f9b9d58b3b116bb4e99,614474abab1644252b136279,63e10c411fe3329c8004dfab,63e10f9b9d58b3b116bb4e99,100,,,Price of this smartphone contract: £ 480,50,480,143,180,,,,,,,,,
,3627,rating_trial,html-slider-response,148,600123,0.0-148.0,14,1,06/02/2023 14:33,ade4f6ea5f9a534a6de2afd25aaa37ca,90.202.132.131,"Mozilla/5.0 (Windows NT 10.0; Win64; x64) AppleWebKit/537.36 (KHTML, like Gecko) Chrome/109.0.0.0 Safari/537.36",WebKit,Chrome,109.0.0.0,Windows,10,614474abab1644252b136279,63e10c411fe3329c8004dfab,63e10f9b9d58b3b116bb4e99,614474abab1644252b136279,63e10c411fe3329c8004dfab,63e10f9b9d58b3b116bb4e99,8,,,Price of this smartphone contract: £ 923.99,50,923.99,144,180,,,,,,,,,
,5411,rating_trial,html-slider-response,149,605539,0.0-149.0,14,1,06/02/2023 14:33,ade4f6ea5f9a534a6de2afd25aaa37ca,90.202.132.131,"Mozilla/5.0 (Windows NT 10.0; Win64; x64) AppleWebKit/537.36 (KHTML, like Gecko) Chrome/109.0.0.0 Safari/537.36",WebKit,Chrome,109.0.0.0,Windows,10,614474abab1644252b136279,63e10c411fe3329c8004dfab,63e10f9b9d58b3b116bb4e99,614474abab1644252b136279,63e10c411fe3329c8004dfab,63e10f9b9d58b3b116bb4e99,19,,,Price of this smartphone contract: £ 843,50,843,145,180,,,,,,,,,
,3404,rating_trial,html-slider-response,150,608947,0.0-150.0,14,1,06/02/2023 14:33,ade4f6ea5f9a534a6de2afd25aaa37ca,90.202.132.131,"Mozilla/5.0 (Windows NT 10.0; Win64; x64) AppleWebKit/537.36 (KHTML, like Gecko) Chrome/109.0.0.0 Safari/537.36",WebKit,Chrome,109.0.0.0,Windows,10,614474abab1644252b136279,63e10c411fe3329c8004dfab,63e10f9b9d58b3b116bb4e99,614474abab1644252b136279,63e10c411fe3329c8004dfab,63e10f9b9d58b3b116bb4e99,32,,,Price of this smartphone contract: £ 768,50,768,146,180,,,,,,,,,
,2987,rating_trial,html-slider-response,151,611939,0.0-151.0,14,1,06/02/2023 14:33,ade4f6ea5f9a534a6de2afd25aaa37ca,90.202.132.131,"Mozilla/5.0 (Windows NT 10.0; Win64; x64) AppleWebKit/537.36 (KHTML, like Gecko) Chrome/109.0.0.0 Safari/537.36",WebKit,Chrome,109.0.0.0,Windows,10,614474abab1644252b136279,63e10c411fe3329c8004dfab,63e10f9b9d58b3b116bb4e99,614474abab1644252b136279,63e10c411fe3329c8004dfab,63e10f9b9d58b3b116bb4e99,69,,,Price of this smartphone contract: £ 576,50,576,147,180,,,,,,,,,
,2323,rating_trial,html-slider-response,152,614267,0.0-152.0,14,1,06/02/2023 14:33,ade4f6ea5f9a534a6de2afd25aaa37ca,90.202.132.131,"Mozilla/5.0 (Windows NT 10.0; Win64; x64) AppleWebKit/537.36 (KHTML, like Gecko) Chrome/109.0.0.0 Safari/537.36",WebKit,Chrome,109.0.0.0,Windows,10,614474abab1644252b136279,63e10c411fe3329c8004dfab,63e10f9b9d58b3b116bb4e99,614474abab1644252b136279,63e10c411fe3329c8004dfab,63e10f9b9d58b3b116bb4e99,77,,,Price of this smartphone contract: £ 571,50,571,148,180,,,,,,,,,
,3132,rating_trial,html-slider-response,153,617403,0.0-153.0,14,1,06/02/2023 14:33,ade4f6ea5f9a534a6de2afd25aaa37ca,90.202.132.131,"Mozilla/5.0 (Windows NT 10.0; Win64; x64) AppleWebKit/537.36 (KHTML, like Gecko) Chrome/109.0.0.0 Safari/537.36",WebKit,Chrome,109.0.0.0,Windows,10,614474abab1644252b136279,63e10c411fe3329c8004dfab,63e10f9b9d58b3b116bb4e99,614474abab1644252b136279,63e10c411fe3329c8004dfab,63e10f9b9d58b3b116bb4e99,0,,,Price of this smartphone contract: £ 1152,50,1152,149,180,,,,,,,,,
,3683,rating_trial,html-slider-response,154,621091,0.0-154.0,14,1,06/02/2023 14:33,ade4f6ea5f9a534a6de2afd25aaa37ca,90.202.132.131,"Mozilla/5.0 (Windows NT 10.0; Win64; x64) AppleWebKit/537.36 (KHTML, like Gecko) Chrome/109.0.0.0 Safari/537.36",WebKit,Chrome,109.0.0.0,Windows,10,614474abab1644252b136279,63e10c411fe3329c8004dfab,63e10f9b9d58b3b116bb4e99,614474abab1644252b136279,63e10c411fe3329c8004dfab,63e10f9b9d58b3b116bb4e99,13,,,Price of this smartphone contract: £ 871.99,50,871.99,150,180,,,,,,,,,
,3172,rating_trial,html-slider-response,155,624267,0.0-155.0,14,1,06/02/2023 14:33,ade4f6ea5f9a534a6de2afd25aaa37ca,90.202.132.131,"Mozilla/5.0 (Windows NT 10.0; Win64; x64) AppleWebKit/537.36 (KHTML, like Gecko) Chrome/109.0.0.0 Safari/537.36",WebKit,Chrome,109.0.0.0,Windows,10,614474abab1644252b136279,63e10c411fe3329c8004dfab,63e10f9b9d58b3b116bb4e99,614474abab1644252b136279,63e10c411fe3329c8004dfab,63e10f9b9d58b3b116bb4e99,34,,,Price of this smartphone contract: £ 745.99,50,745.99,151,180,,,,,,,,,
,2627,rating_trial,html-slider-response,156,626899,0.0-156.0,14,1,06/02/2023 14:33,ade4f6ea5f9a534a6de2afd25aaa37ca,90.202.132.131,"Mozilla/5.0 (Windows NT 10.0; Win64; x64) AppleWebKit/537.36 (KHTML, like Gecko) Chrome/109.0.0.0 Safari/537.36",WebKit,Chrome,109.0.0.0,Windows,10,614474abab1644252b136279,63e10c411fe3329c8004dfab,63e10f9b9d58b3b116bb4e99,614474abab1644252b136279,63e10c411fe3329c8004dfab,63e10f9b9d58b3b116bb4e99,24,,,Price of this smartphone contract: £ 864,50,864,152,180,,,,,,,,,
,2859,rating_trial,html-slider-response,157,629763,0.0-157.0,14,1,06/02/2023 14:33,ade4f6ea5f9a534a6de2afd25aaa37ca,90.202.132.131,"Mozilla/5.0 (Windows NT 10.0; Win64; x64) AppleWebKit/537.36 (KHTML, like Gecko) Chrome/109.0.0.0 Safari/537.36",WebKit,Chrome,109.0.0.0,Windows,10,614474abab1644252b136279,63e10c411fe3329c8004dfab,63e10f9b9d58b3b116bb4e99,614474abab1644252b136279,63e10c411fe3329c8004dfab,63e10f9b9d58b3b116bb4e99,35,,,Price of this smartphone contract: £ 715,50,715,153,180,,,,,,,,,
,2723,rating_trial,html-slider-response,158,632491,0.0-158.0,14,1,06/02/2023 14:33,ade4f6ea5f9a534a6de2afd25aaa37ca,90.202.132.131,"Mozilla/5.0 (Windows NT 10.0; Win64; x64) AppleWebKit/537.36 (KHTML, like Gecko) Chrome/109.0.0.0 Safari/537.36",WebKit,Chrome,109.0.0.0,Windows,10,614474abab1644252b136279,63e10c411fe3329c8004dfab,63e10f9b9d58b3b116bb4e99,614474abab1644252b136279,63e10c411fe3329c8004dfab,63e10f9b9d58b3b116bb4e99,0,,,Price of this smartphone contract: £ 1250,50,1250,154,180,,,,,,,,,
,2227,rating_trial,html-slider-response,159,634723,0.0-159.0,14,1,06/02/2023 14:33,ade4f6ea5f9a534a6de2afd25aaa37ca,90.202.132.131,"Mozilla/5.0 (Windows NT 10.0; Win64; x64) AppleWebKit/537.36 (KHTML, like Gecko) Chrome/109.0.0.0 Safari/537.36",WebKit,Chrome,109.0.0.0,Windows,10,614474abab1644252b136279,63e10c411fe3329c8004dfab,63e10f9b9d58b3b116bb4e99,614474abab1644252b136279,63e10c411fe3329c8004dfab,63e10f9b9d58b3b116bb4e99,0,,,Price of this smartphone contract: £ 1683,50,1683,155,180,,,,,,,,,
,2420,rating_trial,html-slider-response,160,637147,0.0-160.0,14,1,06/02/2023 14:33,ade4f6ea5f9a534a6de2afd25aaa37ca,90.202.132.131,"Mozilla/5.0 (Windows NT 10.0; Win64; x64) AppleWebKit/537.36 (KHTML, like Gecko) Chrome/109.0.0.0 Safari/537.36",WebKit,Chrome,109.0.0.0,Windows,10,614474abab1644252b136279,63e10c411fe3329c8004dfab,63e10f9b9d58b3b116bb4e99,614474abab1644252b136279,63e10c411fe3329c8004dfab,63e10f9b9d58b3b116bb4e99,37,,,Price of this smartphone contract: £ 723,50,723,156,180,,,,,,,,,
,2627,rating_trial,html-slider-response,161,639779,0.0-161.0,14,1,06/02/2023 14:33,ade4f6ea5f9a534a6de2afd25aaa37ca,90.202.132.131,"Mozilla/5.0 (Windows NT 10.0; Win64; x64) AppleWebKit/537.36 (KHTML, like Gecko) Chrome/109.0.0.0 Safari/537.36",WebKit,Chrome,109.0.0.0,Windows,10,614474abab1644252b136279,63e10c411fe3329c8004dfab,63e10f9b9d58b3b116bb4e99,614474abab1644252b136279,63e10c411fe3329c8004dfab,63e10f9b9d58b3b116bb4e99,43,,,Price of this smartphone contract: £ 792,50,792,157,180,,,,,,,,,
,2715,rating_trial,html-slider-response,162,642499,0.0-162.0,14,1,06/02/2023 14:33,ade4f6ea5f9a534a6de2afd25aaa37ca,90.202.132.131,"Mozilla/5.0 (Windows NT 10.0; Win64; x64) AppleWebKit/537.36 (KHTML, like Gecko) Chrome/109.0.0.0 Safari/537.36",WebKit,Chrome,109.0.0.0,Windows,10,614474abab1644252b136279,63e10c411fe3329c8004dfab,63e10f9b9d58b3b116bb4e99,614474abab1644252b136279,63e10c411fe3329c8004dfab,63e10f9b9d58b3b116bb4e99,0,,,Price of this smartphone contract: £ 1683,50,1683,158,180,,,,,,,,,
,3643,rating_trial,html-slider-response,163,646147,0.0-163.0,14,1,06/02/2023 14:33,ade4f6ea5f9a534a6de2afd25aaa37ca,90.202.132.131,"Mozilla/5.0 (Windows NT 10.0; Win64; x64) AppleWebKit/537.36 (KHTML, like Gecko) Chrome/109.0.0.0 Safari/537.36",WebKit,Chrome,109.0.0.0,Windows,10,614474abab1644252b136279,63e10c411fe3329c8004dfab,63e10f9b9d58b3b116bb4e99,614474abab1644252b136279,63e10c411fe3329c8004dfab,63e10f9b9d58b3b116bb4e99,61,,,Price of this smartphone contract: £ 673.99,50,673.99,159,180,,,,,,,,,
,2979,rating_trial,html-slider-response,164,649131,0.0-164.0,14,1,06/02/2023 14:33,ade4f6ea5f9a534a6de2afd25aaa37ca,90.202.132.131,"Mozilla/5.0 (Windows NT 10.0; Win64; x64) AppleWebKit/537.36 (KHTML, like Gecko) Chrome/109.0.0.0 Safari/537.36",WebKit,Chrome,109.0.0.0,Windows,10,614474abab1644252b136279,63e10c411fe3329c8004dfab,63e10f9b9d58b3b116bb4e99,614474abab1644252b136279,63e10c411fe3329c8004dfab,63e10f9b9d58b3b116bb4e99,24,,,Price of this smartphone contract: £ 869.99,50,869.99,160,180,,,,,,,,,
,3427,rating_trial,html-slider-response,165,652563,0.0-165.0,14,1,06/02/2023 14:33,ade4f6ea5f9a534a6de2afd25aaa37ca,90.202.132.131,"Mozilla/5.0 (Windows NT 10.0; Win64; x64) AppleWebKit/537.36 (KHTML, like Gecko) Chrome/109.0.0.0 Safari/537.36",WebKit,Chrome,109.0.0.0,Windows,10,614474abab1644252b136279,63e10c411fe3329c8004dfab,63e10f9b9d58b3b116bb4e99,614474abab1644252b136279,63e10c411fe3329c8004dfab,63e10f9b9d58b3b116bb4e99,100,,,Price of this smartphone contract: £ 431.76,50,431.76,161,180,,,,,,,,,
,2467,rating_trial,html-slider-response,166,655035,0.0-166.0,14,1,06/02/2023 14:33,ade4f6ea5f9a534a6de2afd25aaa37ca,90.202.132.131,"Mozilla/5.0 (Windows NT 10.0; Win64; x64) AppleWebKit/537.36 (KHTML, like Gecko) Chrome/109.0.0.0 Safari/537.36",WebKit,Chrome,109.0.0.0,Windows,10,614474abab1644252b136279,63e10c411fe3329c8004dfab,63e10f9b9d58b3b116bb4e99,614474abab1644252b136279,63e10c411fe3329c8004dfab,63e10f9b9d58b3b116bb4e99,0,,,Price of this smartphone contract: £ 1155.99,50,1155.99,162,180,,,,,,,,,
,2028,rating_trial,html-slider-response,167,657067,0.0-167.0,14,1,06/02/2023 14:33,ade4f6ea5f9a534a6de2afd25aaa37ca,90.202.132.131,"Mozilla/5.0 (Windows NT 10.0; Win64; x64) AppleWebKit/537.36 (KHTML, like Gecko) Chrome/109.0.0.0 Safari/537.36",WebKit,Chrome,109.0.0.0,Windows,10,614474abab1644252b136279,63e10c411fe3329c8004dfab,63e10f9b9d58b3b116bb4e99,614474abab1644252b136279,63e10c411fe3329c8004dfab,63e10f9b9d58b3b116bb4e99,0,,,Price of this smartphone contract: £ 1065.99,50,1065.99,163,180,,,,,,,,,
,2483,rating_trial,html-slider-response,168,659556,0.0-168.0,14,1,06/02/2023 14:33,ade4f6ea5f9a534a6de2afd25aaa37ca,90.202.132.131,"Mozilla/5.0 (Windows NT 10.0; Win64; x64) AppleWebKit/537.36 (KHTML, like Gecko) Chrome/109.0.0.0 Safari/537.36",WebKit,Chrome,109.0.0.0,Windows,10,614474abab1644252b136279,63e10c411fe3329c8004dfab,63e10f9b9d58b3b116bb4e99,614474abab1644252b136279,63e10c411fe3329c8004dfab,63e10f9b9d58b3b116bb4e99,19,,,Price of this smartphone contract: £ 865.99,50,865.99,164,180,,,,,,,,,
,2659,rating_trial,html-slider-response,169,662219,0.0-169.0,14,1,06/02/2023 14:33,ade4f6ea5f9a534a6de2afd25aaa37ca,90.202.132.131,"Mozilla/5.0 (Windows NT 10.0; Win64; x64) AppleWebKit/537.36 (KHTML, like Gecko) Chrome/109.0.0.0 Safari/537.36",WebKit,Chrome,109.0.0.0,Windows,10,614474abab1644252b136279,63e10c411fe3329c8004dfab,63e10f9b9d58b3b116bb4e99,614474abab1644252b136279,63e10c411fe3329c8004dfab,63e10f9b9d58b3b116bb4e99,30,,,Price of this smartphone contract: £ 746.99,50,746.99,165,180,,,,,,,,,
,2899,rating_trial,html-slider-response,170,665123,0.0-170.0,14,1,06/02/2023 14:33,ade4f6ea5f9a534a6de2afd25aaa37ca,90.202.132.131,"Mozilla/5.0 (Windows NT 10.0; Win64; x64) AppleWebKit/537.36 (KHTML, like Gecko) Chrome/109.0.0.0 Safari/537.36",WebKit,Chrome,109.0.0.0,Windows,10,614474abab1644252b136279,63e10c411fe3329c8004dfab,63e10f9b9d58b3b116bb4e99,614474abab1644252b136279,63e10c411fe3329c8004dfab,63e10f9b9d58b3b116bb4e99,89,,,Price of this smartphone contract: £ 504,50,504,166,180,,,,,,,,,
,3540,rating_trial,html-slider-response,171,668668,0.0-171.0,14,1,06/02/2023 14:33,ade4f6ea5f9a534a6de2afd25aaa37ca,90.202.132.131,"Mozilla/5.0 (Windows NT 10.0; Win64; x64) AppleWebKit/537.36 (KHTML, like Gecko) Chrome/109.0.0.0 Safari/537.36",WebKit,Chrome,109.0.0.0,Windows,10,614474abab1644252b136279,63e10c411fe3329c8004dfab,63e10f9b9d58b3b116bb4e99,614474abab1644252b136279,63e10c411fe3329c8004dfab,63e10f9b9d58b3b116bb4e99,99,,,Price of this smartphone contract: £ 431.76,50,431.76,167,180,,,,,,,,,
,3435,rating_trial,html-slider-response,172,672107,0.0-172.0,14,1,06/02/2023 14:33,ade4f6ea5f9a534a6de2afd25aaa37ca,90.202.132.131,"Mozilla/5.0 (Windows NT 10.0; Win64; x64) AppleWebKit/537.36 (KHTML, like Gecko) Chrome/109.0.0.0 Safari/537.36",WebKit,Chrome,109.0.0.0,Windows,10,614474abab1644252b136279,63e10c411fe3329c8004dfab,63e10f9b9d58b3b116bb4e99,614474abab1644252b136279,63e10c411fe3329c8004dfab,63e10f9b9d58b3b116bb4e99,36,,,Price of this smartphone contract: £ 725.99,50,725.99,168,180,,,,,,,,,
,3787,rating_trial,html-slider-response,173,675899,0.0-173.0,14,1,06/02/2023 14:33,ade4f6ea5f9a534a6de2afd25aaa37ca,90.202.132.131,"Mozilla/5.0 (Windows NT 10.0; Win64; x64) AppleWebKit/537.36 (KHTML, like Gecko) Chrome/109.0.0.0 Safari/537.36",WebKit,Chrome,109.0.0.0,Windows,10,614474abab1644252b136279,63e10c411fe3329c8004dfab,63e10f9b9d58b3b116bb4e99,614474abab1644252b136279,63e10c411fe3329c8004dfab,63e10f9b9d58b3b116bb4e99,0,,,Price of this smartphone contract: £ 1320,50,1320,169,180,,,,,,,,,
,3995,rating_trial,html-slider-response,174,679899,0.0-174.0,14,1,06/02/2023 14:33,ade4f6ea5f9a534a6de2afd25aaa37ca,90.202.132.131,"Mozilla/5.0 (Windows NT 10.0; Win64; x64) AppleWebKit/537.36 (KHTML, like Gecko) Chrome/109.0.0.0 Safari/537.36",WebKit,Chrome,109.0.0.0,Windows,10,614474abab1644252b136279,63e10c411fe3329c8004dfab,63e10f9b9d58b3b116bb4e99,614474abab1644252b136279,63e10c411fe3329c8004dfab,63e10f9b9d58b3b116bb4e99,94,,,Price of this smartphone contract: £ 480,50,480,170,180,,,,,,,,,
,2650,rating_trial,html-slider-response,175,682555,0.0-175.0,14,1,06/02/2023 14:33,ade4f6ea5f9a534a6de2afd25aaa37ca,90.202.132.131,"Mozilla/5.0 (Windows NT 10.0; Win64; x64) AppleWebKit/537.36 (KHTML, like Gecko) Chrome/109.0.0.0 Safari/537.36",WebKit,Chrome,109.0.0.0,Windows,10,614474abab1644252b136279,63e10c411fe3329c8004dfab,63e10f9b9d58b3b116bb4e99,614474abab1644252b136279,63e10c411fe3329c8004dfab,63e10f9b9d58b3b116bb4e99,0,,,Price of this smartphone contract: £ 1201.99,50,1201.99,171,180,,,,,,,,,
,3091,rating_trial,html-slider-response,176,685651,0.0-176.0,14,1,06/02/2023 14:33,ade4f6ea5f9a534a6de2afd25aaa37ca,90.202.132.131,"Mozilla/5.0 (Windows NT 10.0; Win64; x64) AppleWebKit/537.36 (KHTML, like Gecko) Chrome/109.0.0.0 Safari/537.36",WebKit,Chrome,109.0.0.0,Windows,10,614474abab1644252b136279,63e10c411fe3329c8004dfab,63e10f9b9d58b3b116bb4e99,614474abab1644252b136279,63e10c411fe3329c8004dfab,63e10f9b9d58b3b116bb4e99,56,,,Price of this smartphone contract: £ 642.96,50,642.96,172,180,,,,,,,,,
,3107,rating_trial,html-slider-response,177,688763,0.0-177.0,14,1,06/02/2023 14:33,ade4f6ea5f9a534a6de2afd25aaa37ca,90.202.132.131,"Mozilla/5.0 (Windows NT 10.0; Win64; x64) AppleWebKit/537.36 (KHTML, like Gecko) Chrome/109.0.0.0 Safari/537.36",WebKit,Chrome,109.0.0.0,Windows,10,614474abab1644252b136279,63e10c411fe3329c8004dfab,63e10f9b9d58b3b116bb4e99,614474abab1644252b136279,63e10c411fe3329c8004dfab,63e10f9b9d58b3b116bb4e99,0,,,Price of this smartphone contract: £ 1083,50,1083,173,180,,,,,,,,,
,2555,rating_trial,html-slider-response,178,691323,0.0-178.0,14,1,06/02/2023 14:33,ade4f6ea5f9a534a6de2afd25aaa37ca,90.202.132.131,"Mozilla/5.0 (Windows NT 10.0; Win64; x64) AppleWebKit/537.36 (KHTML, like Gecko) Chrome/109.0.0.0 Safari/537.36",WebKit,Chrome,109.0.0.0,Windows,10,614474abab1644252b136279,63e10c411fe3329c8004dfab,63e10f9b9d58b3b116bb4e99,614474abab1644252b136279,63e10c411fe3329c8004dfab,63e10f9b9d58b3b116bb4e99,42,,,Price of this smartphone contract: £ 745.75,50,745.75,174,180,,,,,,,,,
,2771,rating_trial,html-slider-response,179,694099,0.0-179.0,14,1,06/02/2023 14:33,ade4f6ea5f9a534a6de2afd25aaa37ca,90.202.132.131,"Mozilla/5.0 (Windows NT 10.0; Win64; x64) AppleWebKit/537.36 (KHTML, like Gecko) Chrome/109.0.0.0 Safari/537.36",WebKit,Chrome,109.0.0.0,Windows,10,614474abab1644252b136279,63e10c411fe3329c8004dfab,63e10f9b9d58b3b116bb4e99,614474abab1644252b136279,63e10c411fe3329c8004dfab,63e10f9b9d58b3b116bb4e99,99,,,Price of this smartphone contract: £ 432,50,432,175,180,,,,,,,,,
,3428,rating_trial,html-slider-response,180,697531,0.0-180.0,14,1,06/02/2023 14:33,ade4f6ea5f9a534a6de2afd25aaa37ca,90.202.132.131,"Mozilla/5.0 (Windows NT 10.0; Win64; x64) AppleWebKit/537.36 (KHTML, like Gecko) Chrome/109.0.0.0 Safari/537.36",WebKit,Chrome,109.0.0.0,Windows,10,614474abab1644252b136279,63e10c411fe3329c8004dfab,63e10f9b9d58b3b116bb4e99,614474abab1644252b136279,63e10c411fe3329c8004dfab,63e10f9b9d58b3b116bb4e99,79,,,Price of this smartphone contract: £ 528,50,528,176,180,,,,,,,,,
,2575,rating_trial,html-slider-response,181,700111,0.0-181.0,14,1,06/02/2023 14:33,ade4f6ea5f9a534a6de2afd25aaa37ca,90.202.132.131,"Mozilla/5.0 (Windows NT 10.0; Win64; x64) AppleWebKit/537.36 (KHTML, like Gecko) Chrome/109.0.0.0 Safari/537.36",WebKit,Chrome,109.0.0.0,Windows,10,614474abab1644252b136279,63e10c411fe3329c8004dfab,63e10f9b9d58b3b116bb4e99,614474abab1644252b136279,63e10c411fe3329c8004dfab,63e10f9b9d58b3b116bb4e99,0,,,Price of this smartphone contract: £ 1320,50,1320,177,180,,,,,,,,,
,2483,rating_trial,html-slider-response,182,702603,0.0-182.0,14,1,06/02/2023 14:33,ade4f6ea5f9a534a6de2afd25aaa37ca,90.202.132.131,"Mozilla/5.0 (Windows NT 10.0; Win64; x64) AppleWebKit/537.36 (KHTML, like Gecko) Chrome/109.0.0.0 Safari/537.36",WebKit,Chrome,109.0.0.0,Windows,10,614474abab1644252b136279,63e10c411fe3329c8004dfab,63e10f9b9d58b3b116bb4e99,614474abab1644252b136279,63e10c411fe3329c8004dfab,63e10f9b9d58b3b116bb4e99,47,,,Price of this smartphone contract: £ 673.99,50,673.99,178,180,,,,,,,,,
,2442,rating_trial,html-slider-response,183,705051,0.0-183.0,14,1,06/02/2023 14:33,ade4f6ea5f9a534a6de2afd25aaa37ca,90.202.132.131,"Mozilla/5.0 (Windows NT 10.0; Win64; x64) AppleWebKit/537.36 (KHTML, like Gecko) Chrome/109.0.0.0 Safari/537.36",WebKit,Chrome,109.0.0.0,Windows,10,614474abab1644252b136279,63e10c411fe3329c8004dfab,63e10f9b9d58b3b116bb4e99,614474abab1644252b136279,63e10c411fe3329c8004dfab,63e10f9b9d58b3b116bb4e99,0,,,Price of this smartphone contract: £ 1155.99,50,1155.99,179,180,,,,,,,,,
"[{""page_index"":0,""viewing_time"":21300},{""page_index"":1,""viewing_time"":15607},{""page_index"":2,""viewing_time"":30704},{""page_index"":3,""viewing_time"":19184},{""page_index"":4,""viewing_time"":16752},{""page_index"":5,""viewing_time"":15296}]",118844,phase2_instructions,instructions,184,823900,0.0-184.0,14,1,06/02/2023 14:33,ade4f6ea5f9a534a6de2afd25aaa37ca,90.202.132.131,"Mozilla/5.0 (Windows NT 10.0; Win64; x64) AppleWebKit/537.36 (KHTML, like Gecko) Chrome/109.0.0.0 Safari/537.36",WebKit,Chrome,109.0.0.0,Windows,10,614474abab1644252b136279,63e10c411fe3329c8004dfab,63e10f9b9d58b3b116bb4e99,614474abab1644252b136279,63e10c411fe3329c8004dfab,63e10f9b9d58b3b116bb4e99,,,,,,,,,,,,,,,,,
,null,sequence_start_screen,html-keyboard-response,185,829915,0.0-185.0,14,1,06/02/2023 14:33,ade4f6ea5f9a534a6de2afd25aaa37ca,90.202.132.131,"Mozilla/5.0 (Windows NT 10.0; Win64; x64) AppleWebKit/537.36 (KHTML, like Gecko) Chrome/109.0.0.0 Safari/537.36",WebKit,Chrome,109.0.0.0,Windows,10,614474abab1644252b136279,63e10c411fe3329c8004dfab,63e10f9b9d58b3b116bb4e99,614474abab1644252b136279,63e10c411fe3329c8004dfab,63e10f9b9d58b3b116bb4e99,null,,,"
                <h3 style=""color: white; text-align: left;"">You will buy a: <strong>SMARTPHONE</strong></h3> <br/> 
                <h3 style=""color: white; text-align: left;"">You can see up to: <strong>12 options</strong></h3> <br/> 
                <h3 style=""color: white; text-align: left;"">It is best to buy a SMARTPHONE</h3> <br/> 
                <h3 style=""color: white; text-align: left"">at the LOWEST PRICE </h3>
                    ",,,,,,,,,,,,,
,null,option_screen,html-keyboard-response,186,833936,0.0-186.0-0.0,14,1,06/02/2023 14:33,ade4f6ea5f9a534a6de2afd25aaa37ca,90.202.132.131,"Mozilla/5.0 (Windows NT 10.0; Win64; x64) AppleWebKit/537.36 (KHTML, like Gecko) Chrome/109.0.0.0 Safari/537.36",WebKit,Chrome,109.0.0.0,Windows,10,614474abab1644252b136279,63e10c411fe3329c8004dfab,63e10f9b9d58b3b116bb4e99,614474abab1644252b136279,63e10c411fe3329c8004dfab,63e10f9b9d58b3b116bb4e99,null,,,"
                <h3 style=""color: white;"">You will buy a: SMARTPHONE</h3> <br/> 
                <h3 style=""color: white;"">You have only 11 options left to choose from</h3> <br/> 
                <h3 style=""color: white;"">Current Option:</h3><br/> 
                <h3 style="" color: black;""> £811</h3><br/> 
                <h3 style="" color: black;"">Declined Options</span></h3><br/> 
                <h3 style=""left: 0; color: black;""></h3>
                ",,811,,,1,1,,,,,,,
,4249,response_prompt,html-button-response,187,838196,0.0-186.0-1.0,14,1,06/02/2023 14:33,ade4f6ea5f9a534a6de2afd25aaa37ca,90.202.132.131,"Mozilla/5.0 (Windows NT 10.0; Win64; x64) AppleWebKit/537.36 (KHTML, like Gecko) Chrome/109.0.0.0 Safari/537.36",WebKit,Chrome,109.0.0.0,Windows,10,614474abab1644252b136279,63e10c411fe3329c8004dfab,63e10f9b9d58b3b116bb4e99,614474abab1644252b136279,63e10c411fe3329c8004dfab,63e10f9b9d58b3b116bb4e99,1,,,"
                    <p><div style=""color:white;"">Do you want to take this option?</div></p>
                        ",,811,,,1,1,7,12,5,2,1,"[[811,383.76,915,745.75,923.99,631.92,1133.99,768,798.99,1187.99,528,843],[746.99,1253.99,1709,624,945.99,673.99,642.96,551.76,480,839.75,745.99,1322],[865.99,695.76,845.99,787,835,795,1320,1083,1345,917.99,1155.99,912],[989.99,825.99,1225,792,571,935,1250,864,432,631.99,1008,871.99],[590.99,749.99,715,1229.99,744,1065.99,1155,1691.99,431.76,1763.99,1032,769.75]]",
,null,option_screen,html-keyboard-response,188,842212,0.0-187.0-0.0,14,1,06/02/2023 14:33,ade4f6ea5f9a534a6de2afd25aaa37ca,90.202.132.131,"Mozilla/5.0 (Windows NT 10.0; Win64; x64) AppleWebKit/537.36 (KHTML, like Gecko) Chrome/109.0.0.0 Safari/537.36",WebKit,Chrome,109.0.0.0,Windows,10,614474abab1644252b136279,63e10c411fe3329c8004dfab,63e10f9b9d58b3b116bb4e99,614474abab1644252b136279,63e10c411fe3329c8004dfab,63e10f9b9d58b3b116bb4e99,null,,,"
                <h3 style=""color: white;"">You will buy a: SMARTPHONE</h3> <br/> 
                <h3 style=""color: white;"">You have only 10 options left to choose from</h3> <br/> 
                <h3 style=""color: white;"">Current Option:</h3><br/> 
                <h3 style="" color: black;""> £383.76</h3><br/> 
                <h3 style="" color: black;"">Declined Options</span></h3><br/> 
                <h3 style=""left: 0; color: black;"">£811</h3>
                ",,383.76,,,1,2,,,,,,,
,1941,response_prompt,html-button-response,189,844164,0.0-187.0-1.0,14,1,06/02/2023 14:33,ade4f6ea5f9a534a6de2afd25aaa37ca,90.202.132.131,"Mozilla/5.0 (Windows NT 10.0; Win64; x64) AppleWebKit/537.36 (KHTML, like Gecko) Chrome/109.0.0.0 Safari/537.36",WebKit,Chrome,109.0.0.0,Windows,10,614474abab1644252b136279,63e10c411fe3329c8004dfab,63e10f9b9d58b3b116bb4e99,614474abab1644252b136279,63e10c411fe3329c8004dfab,63e10f9b9d58b3b116bb4e99,0,,,"
                    <p><div style=""color:white;"">Do you want to take this option?</div></p>
                        ",,383.76,,,1,2,1,12,5,2,1,"[[811,383.76,915,745.75,923.99,631.92,1133.99,768,798.99,1187.99,528,843],[746.99,1253.99,1709,624,945.99,673.99,642.96,551.76,480,839.75,745.99,1322],[865.99,695.76,845.99,787,835,795,1320,1083,1345,917.99,1155.99,912],[989.99,825.99,1225,792,571,935,1250,864,432,631.99,1008,871.99],[590.99,749.99,715,1229.99,744,1065.99,1155,1691.99,431.76,1763.99,1032,769.75]]",
,null,,html-keyboard-response,190,850180,0.0-198.0,14,1,06/02/2023 14:33,ade4f6ea5f9a534a6de2afd25aaa37ca,90.202.132.131,"Mozilla/5.0 (Windows NT 10.0; Win64; x64) AppleWebKit/537.36 (KHTML, like Gecko) Chrome/109.0.0.0 Safari/537.36",WebKit,Chrome,109.0.0.0,Windows,10,614474abab1644252b136279,63e10c411fe3329c8004dfab,63e10f9b9d58b3b116bb4e99,614474abab1644252b136279,63e10c411fe3329c8004dfab,63e10f9b9d58b3b116bb4e99,null,,,"<p style= color:white;> You win: 5 stars</p>
                        <div style='float: center;'><img src='5_stars.png'></img>",,,,,,,,,,,,,
,null,sequence_start_screen,html-keyboard-response,191,856197,0.0-199.0,14,1,06/02/2023 14:33,ade4f6ea5f9a534a6de2afd25aaa37ca,90.202.132.131,"Mozilla/5.0 (Windows NT 10.0; Win64; x64) AppleWebKit/537.36 (KHTML, like Gecko) Chrome/109.0.0.0 Safari/537.36",WebKit,Chrome,109.0.0.0,Windows,10,614474abab1644252b136279,63e10c411fe3329c8004dfab,63e10f9b9d58b3b116bb4e99,614474abab1644252b136279,63e10c411fe3329c8004dfab,63e10f9b9d58b3b116bb4e99,null,,,"
                <h3 style=""color: white; text-align: left;"">You will buy a: <strong>SMARTPHONE</strong></h3> <br/> 
                <h3 style=""color: white; text-align: left;"">You can see up to: <strong>12 options</strong></h3> <br/> 
                <h3 style=""color: white; text-align: left;"">It is best to buy a SMARTPHONE</h3> <br/> 
